File: data/T25/3C/1.csv
time_s,voltage_v,current_a,chargecapacity_ah,dischargecapacity_ah,charge_energy_wh,discharge_energy_wh,voltagedot_v_per_s,temp_degc
1,3.008,0.000,0.000,0.000,0.000,0.000,0.000,24.344
22,3.008,0.000,0.000,0.000,0.000,0.000,0.000,24.320
43,3.008,0.000,0.000,0.000,0.000,0.000,0.000,24.360
63,3.231,1.625,0.001,0.000,0.004,0.001,0.005,24.364
84,3.293,1.625,0.011,0.000,0.035,0.001,0.002,24.371
105,3.336,1.625,0.020,0.000,0.067,0.001,0.002,24.368
126,3.371,1.625,0.030,0.000,0.099,0.001,0.002,24.416
147,3.401,1.625,0.039,0.000,0.131,0.001,0.001,24.459
168,3.426,1.625,0.049,0.000,0.163,0.001,0.001,24.516
189,3.449,1.625,0.058,0.000,0.196,0.001,0.001,24.499
210,3.468,1.625,0.068,0.000,0.228,0.001,0.001,24.557
231,3.487,1.625,0.077,0.000,0.261,0.001,0.001,24.574
252,3.503,1.625,0.087,0.000,0.295,0.001,0.001,24.610
273,3.517,1.625,0.096,0.000,0.328,0.001,0.001,24.680
294,3.530,1.625,0.106,0.000,0.361,0.001,0.001,24.709
315,3.539,1.625,0.115,0.000,0.395,0.001,0.000,24.745
336,3.544,1.625,0.125,0.000,0.428,0.001,0.000,24.775
357,3.547,1.625,0.134,0.000,0.462,0.001,0.000,24.850
378,3.549,1.625,0.144,0.000,0.496,0.001,0.000,24.874
399,3.550,1.625,0.153,0.000,0.529,0.001,0.000,24.944
420,3.551,1.625,0.163,0.000,0.563,0.001,0.000,25.015
441,3.552,1.625,0.172,0.000,0.597,0.001,0.000,25.093
462,3.553,1.625,0.182,0.000,0.630,0.001,0.000,25.127
483,3.555,1.625,0.191,0.000,0.664,0.001,0.000,25.193
504,3.556,1.625,0.200,0.000,0.698,0.001,0.000,25.221
525,3.558,1.625,0.210,0.000,0.731,0.001,0.000,25.238
546,3.560,1.625,0.219,0.000,0.765,0.001,0.000,25.331
567,3.562,1.625,0.229,0.000,0.799,0.001,0.000,25.337
588,3.564,1.625,0.238,0.000,0.833,0.001,0.000,25.414
609,3.566,1.625,0.248,0.000,0.866,0.001,0.000,25.418
630,3.568,1.625,0.257,0.000,0.900,0.001,0.000,25.428
651,3.570,1.625,0.267,0.000,0.934,0.001,0.000,25.513
672,3.572,1.625,0.276,0.000,0.968,0.001,0.000,25.564
693,3.574,1.625,0.286,0.000,1.002,0.001,0.000,25.545
714,3.576,1.625,0.295,0.000,1.036,0.001,0.000,25.578
735,3.578,1.625,0.305,0.000,1.070,0.001,0.000,25.613
756,3.580,1.625,0.314,0.000,1.104,0.001,0.000,25.671
777,3.582,1.625,0.324,0.000,1.138,0.001,0.000,25.629
798,3.584,1.625,0.333,0.000,1.172,0.001,0.000,25.668
819,3.587,1.625,0.343,0.000,1.206,0.001,0.000,25.682
840,3.589,1.625,0.352,0.000,1.240,0.001,0.000,25.695
861,3.591,1.625,0.362,0.000,1.274,0.001,0.000,25.739
882,3.593,1.625,0.371,0.000,1.308,0.001,0.000,25.729
903,3.595,1.625,0.381,0.000,1.342,0.001,0.000,25.763
924,3.597,1.625,0.390,0.000,1.376,0.001,0.000,25.758
945,3.599,1.625,0.400,0.000,1.410,0.001,0.000,25.758
966,3.601,1.625,0.409,0.000,1.444,0.001,0.000,25.752
987,3.604,1.625,0.419,0.000,1.478,0.001,0.000,25.768
1008,3.606,1.625,0.428,0.000,1.512,0.001,0.000,25.819
1029,3.608,1.625,0.438,0.000,1.547,0.001,0.000,25.775
1050,3.610,1.625,0.447,0.000,1.581,0.001,0.000,25.775
1071,3.612,1.625,0.456,0.000,1.615,0.001,0.000,25.790
1092,3.615,1.625,0.466,0.000,1.649,0.001,0.000,25.807
1113,3.617,1.625,0.475,0.000,1.684,0.001,0.000,25.779
1134,3.619,1.625,0.485,0.000,1.718,0.001,0.000,25.775
1155,3.622,1.625,0.494,0.000,1.752,0.001,0.000,25.795
1176,3.624,1.625,0.504,0.000,1.787,0.001,0.000,25.773
1197,3.627,1.625,0.513,0.000,1.821,0.001,0.000,25.832
1218,3.629,1.625,0.523,0.000,1.855,0.001,0.000,25.737
1239,3.631,1.625,0.532,0.000,1.890,0.001,0.000,25.818
1260,3.633,1.625,0.542,0.000,1.924,0.001,0.000,25.788
1281,3.635,1.625,0.551,0.000,1.959,0.001,0.000,25.775
1302,3.637,1.625,0.561,0.000,1.993,0.001,0.000,25.794
1323,3.639,1.625,0.570,0.000,2.028,0.001,0.000,25.729
1344,3.641,1.625,0.580,0.000,2.062,0.001,0.000,25.766
1365,3.643,1.625,0.589,0.000,2.097,0.001,0.000,25.786
1386,3.645,1.625,0.599,0.000,2.131,0.001,0.000,25.750
1407,3.647,1.625,0.608,0.000,2.166,0.001,0.000,25.714
1428,3.649,1.625,0.618,0.000,2.200,0.001,0.000,25.705
1449,3.650,1.625,0.627,0.000,2.235,0.001,0.000,25.678
1470,3.652,1.625,0.637,0.000,2.270,0.001,0.000,25.710
1491,3.653,1.625,0.646,0.000,2.304,0.001,0.000,25.685
1512,3.655,1.625,0.656,0.000,2.339,0.001,0.000,25.732
1533,3.656,1.625,0.665,0.000,2.374,0.001,0.000,25.672
1554,3.657,1.625,0.675,0.000,2.408,0.001,0.000,25.733
1575,3.659,1.625,0.684,0.000,2.443,0.001,0.000,25.693
1596,3.660,1.625,0.694,0.000,2.478,0.001,0.000,25.655
1617,3.662,1.625,0.703,0.000,2.512,0.001,0.000,25.737
1638,3.663,1.625,0.712,0.000,2.547,0.001,0.000,25.705
1659,3.665,1.625,0.722,0.000,2.582,0.001,0.000,25.653
1680,3.666,1.625,0.731,0.000,2.617,0.001,0.000,25.721
1701,3.667,1.625,0.741,0.000,2.651,0.001,0.000,25.701
1722,3.669,1.625,0.750,0.000,2.686,0.001,0.000,25.718
1743,3.670,1.625,0.760,0.000,2.721,0.001,0.000,25.738
1764,3.672,1.625,0.769,0.000,2.756,0.001,0.000,25.681
1785,3.673,1.625,0.779,0.000,2.791,0.001,0.000,25.706
1806,3.675,1.625,0.788,0.000,2.825,0.001,0.000,25.773
1827,3.677,1.625,0.798,0.000,2.860,0.001,0.000,25.724
1848,3.678,1.625,0.807,0.000,2.895,0.001,0.000,25.700
1869,3.680,1.625,0.817,0.000,2.930,0.001,0.000,25.752
1890,3.681,1.625,0.826,0.000,2.965,0.001,0.000,25.723
1911,3.683,1.625,0.836,0.000,3.000,0.001,0.000,25.699
1932,3.684,1.625,0.845,0.000,3.035,0.001,0.000,25.746
1953,3.686,1.625,0.855,0.000,3.070,0.001,0.000,25.708
1974,3.688,1.625,0.864,0.000,3.105,0.001,0.000,25.706
1995,3.689,1.625,0.874,0.000,3.140,0.001,0.000,25.675
2016,3.691,1.625,0.883,0.000,3.175,0.001,0.000,25.679
2037,3.693,1.625,0.893,0.000,3.210,0.001,0.000,25.717
2058,3.694,1.625,0.902,0.000,3.245,0.001,0.000,25.712
2079,3.696,1.625,0.912,0.000,3.280,0.001,0.000,25.695
2100,3.698,1.625,0.921,0.000,3.315,0.001,0.000,25.727
2121,3.700,1.625,0.931,0.000,3.350,0.001,0.000,25.722
2142,3.701,1.625,0.940,0.000,3.385,0.001,0.000,25.725
2163,3.703,1.625,0.950,0.000,3.420,0.001,0.000,25.706
2184,3.705,1.625,0.959,0.000,3.455,0.001,0.000,25.722
2205,3.707,1.625,0.968,0.000,3.490,0.001,0.000,25.743
2226,3.709,1.625,0.978,0.000,3.525,0.001,0.000,25.727
2247,3.710,1.625,0.987,0.000,3.561,0.001,0.000,25.758
2268,3.712,1.625,0.997,0.000,3.596,0.001,0.000,25.764
2289,3.714,1.625,1.006,0.000,3.631,0.001,0.000,25.754
2310,3.716,1.625,1.016,0.000,3.666,0.001,0.000,25.862
2331,3.718,1.625,1.025,0.000,3.701,0.001,0.000,25.874
2352,3.719,1.625,1.035,0.000,3.737,0.001,0.000,25.851
2373,3.721,1.625,1.044,0.000,3.772,0.001,0.000,25.866
2394,3.723,1.625,1.054,0.000,3.807,0.001,0.000,25.805
2415,3.725,1.625,1.063,0.000,3.843,0.001,0.000,25.793
2436,3.727,1.625,1.073,0.000,3.878,0.001,0.000,25.737
2457,3.728,1.625,1.082,0.000,3.913,0.001,0.000,25.765
2478,3.730,1.625,1.092,0.000,3.949,0.001,0.000,25.726
2499,3.732,1.625,1.101,0.000,3.984,0.001,0.000,25.741
2520,3.733,1.625,1.111,0.000,4.019,0.001,0.000,25.829
2541,3.735,1.625,1.120,0.000,4.055,0.001,0.000,26.081
2562,3.737,1.625,1.130,0.000,4.090,0.001,0.000,26.260
2583,3.738,1.625,1.139,0.000,4.126,0.001,0.000,26.433
2604,3.740,1.625,1.149,0.000,4.161,0.001,0.000,26.390
2625,3.742,1.625,1.158,0.000,4.197,0.001,0.000,26.350
2646,3.743,1.625,1.168,0.000,4.232,0.001,0.000,26.271
2667,3.745,1.625,1.177,0.000,4.268,0.001,0.000,26.241
2688,3.747,1.625,1.187,0.000,4.303,0.001,0.000,26.293
2709,3.748,1.625,1.196,0.000,4.339,0.001,0.000,26.194
2730,3.750,1.625,1.206,0.000,4.374,0.001,0.000,26.167
2751,3.752,1.625,1.215,0.000,4.410,0.001,0.000,26.113
2772,3.753,1.625,1.224,0.000,4.445,0.001,0.000,26.024
2793,3.755,1.625,1.234,0.000,4.481,0.001,0.000,25.989
2814,3.757,1.625,1.243,0.000,4.516,0.001,0.000,25.983
2835,3.758,1.625,1.253,0.000,4.552,0.001,0.000,25.989
2856,3.760,1.625,1.262,0.000,4.588,0.001,0.000,25.922
2877,3.762,1.625,1.272,0.000,4.623,0.001,0.000,25.917
2898,3.764,1.625,1.281,0.000,4.659,0.001,0.000,25.933
2919,3.766,1.625,1.291,0.000,4.695,0.001,0.000,25.932
2940,3.767,1.625,1.300,0.000,4.730,0.001,0.000,25.936
2961,3.769,1.625,1.310,0.000,4.766,0.001,0.000,25.943
2982,3.771,1.625,1.319,0.000,4.802,0.001,0.000,25.931
3003,3.773,1.625,1.329,0.000,4.838,0.001,0.000,25.953
3024,3.775,1.625,1.338,0.000,4.874,0.001,0.000,25.930
3045,3.776,1.625,1.348,0.000,4.909,0.001,0.000,25.961
3066,3.778,1.625,1.357,0.000,4.945,0.001,0.000,25.861
3087,3.780,1.625,1.367,0.000,4.981,0.001,0.000,25.955
3108,3.782,1.625,1.376,0.000,5.017,0.001,0.000,25.929
3129,3.784,1.625,1.386,0.000,5.053,0.001,0.000,25.949
3150,3.786,1.625,1.395,0.000,5.089,0.001,0.000,25.920
3171,3.788,1.625,1.405,0.000,5.124,0.001,0.000,25.898
3192,3.790,1.625,1.414,0.000,5.160,0.001,0.000,25.972
3213,3.791,1.625,1.424,0.000,5.196,0.001,0.000,25.908
3234,3.793,1.625,1.433,0.000,5.232,0.001,0.000,25.943
3255,3.795,1.625,1.443,0.000,5.268,0.001,0.000,25.963
3276,3.797,1.625,1.452,0.000,5.304,0.001,0.000,25.956
3297,3.799,1.625,1.462,0.000,5.340,0.001,0.000,25.974
3318,3.801,1.625,1.471,0.000,5.376,0.001,0.000,25.938
3339,3.803,1.625,1.480,0.000,5.412,0.001,0.000,25.942
3360,3.806,1.625,1.490,0.000,5.448,0.001,0.000,25.960
3381,3.807,1.625,1.499,0.000,5.485,0.001,0.000,25.958
3402,3.810,1.625,1.509,0.000,5.521,0.001,0.000,25.927
3423,3.812,1.625,1.518,0.000,5.557,0.001,0.000,25.906
3444,3.814,1.625,1.528,0.000,5.593,0.001,0.000,25.960
3465,3.816,1.625,1.537,0.000,5.629,0.001,0.000,25.938
3486,3.818,1.625,1.547,0.000,5.665,0.001,0.000,25.952
3507,3.820,1.625,1.556,0.000,5.701,0.001,0.000,25.944
3528,3.822,1.625,1.566,0.000,5.738,0.001,0.000,25.969
3549,3.825,1.625,1.575,0.000,5.774,0.001,0.000,25.949
3570,3.827,1.625,1.585,0.000,5.810,0.001,0.000,25.939
3591,3.829,1.625,1.594,0.000,5.847,0.001,0.000,25.931
3612,3.831,1.625,1.604,0.000,5.883,0.001,0.000,25.930
3633,3.834,1.625,1.613,0.000,5.919,0.001,0.000,25.920
3654,3.836,1.625,1.623,0.000,5.956,0.001,0.000,25.943
3675,3.838,1.625,1.632,0.000,5.992,0.001,0.000,25.950
3696,3.841,1.625,1.642,0.000,6.028,0.001,0.000,25.975
3717,3.843,1.625,1.651,0.000,6.065,0.001,0.000,25.963
3738,3.845,1.625,1.661,0.000,6.101,0.001,0.000,25.956
3759,3.848,1.625,1.670,0.000,6.138,0.001,0.000,25.974
3780,3.850,1.625,1.680,0.000,6.174,0.001,0.000,25.963
3801,3.853,1.625,1.689,0.000,6.211,0.001,0.000,25.944
3822,3.855,1.625,1.699,0.000,6.247,0.001,0.000,25.960
3843,3.858,1.625,1.708,0.000,6.284,0.001,0.000,25.950
3864,3.860,1.625,1.718,0.000,6.320,0.001,0.000,25.985
3885,3.863,1.625,1.727,0.000,6.357,0.001,0.000,25.960
3906,3.865,1.625,1.736,0.000,6.394,0.001,0.000,26.006
3927,3.868,1.625,1.746,0.000,6.430,0.001,0.000,25.965
3948,3.870,1.625,1.755,0.000,6.467,0.001,0.000,25.980
3969,3.873,1.625,1.765,0.000,6.504,0.001,0.000,25.965
3990,3.876,1.625,1.774,0.000,6.540,0.001,0.000,25.942
4011,3.878,1.625,1.784,0.000,6.577,0.001,0.000,25.913
4032,3.881,1.625,1.793,0.000,6.614,0.001,0.000,25.985
4053,3.883,1.625,1.803,0.000,6.651,0.001,0.000,25.968
4074,3.886,1.625,1.812,0.000,6.688,0.001,0.000,25.953
4095,3.889,1.625,1.822,0.000,6.724,0.001,0.000,25.943
4116,3.891,1.625,1.831,0.000,6.761,0.001,0.000,25.932
4137,3.894,1.625,1.841,0.000,6.798,0.001,0.000,25.999
4158,3.897,1.625,1.850,0.000,6.835,0.001,0.000,25.959
4179,3.899,1.625,1.860,0.000,6.872,0.001,0.000,25.922
4200,3.902,1.625,1.869,0.000,6.909,0.001,0.000,25.952
4221,3.905,1.625,1.879,0.000,6.946,0.001,0.000,25.968
4242,3.907,1.625,1.888,0.000,6.983,0.001,0.000,25.919
4263,3.910,1.625,1.898,0.000,7.020,0.001,0.000,25.961
4284,3.913,1.625,1.907,0.000,7.057,0.001,0.000,25.959
4305,3.915,1.625,1.917,0.000,7.094,0.001,0.000,25.945
4326,3.918,1.625,1.926,0.000,7.132,0.001,0.000,25.988
4347,3.921,1.625,1.936,0.000,7.169,0.001,0.000,25.922
4368,3.924,1.625,1.945,0.000,7.206,0.001,0.000,25.977
4389,3.926,1.625,1.955,0.000,7.243,0.001,0.000,25.934
4410,3.929,1.625,1.964,0.000,7.280,0.001,0.000,25.993
4431,3.932,1.625,1.974,0.000,7.318,0.001,0.000,26.010
4452,3.935,1.625,1.983,0.000,7.355,0.001,0.000,25.940
4473,3.937,1.625,1.992,0.000,7.392,0.001,0.000,25.956
4494,3.940,1.625,2.002,0.000,7.430,0.001,0.000,25.947
4515,3.943,1.625,2.011,0.000,7.467,0.001,0.000,25.979
4536,3.945,1.625,2.021,0.000,7.504,0.001,0.000,25.985
4557,3.948,1.625,2.030,0.000,7.542,0.001,0.000,25.969
4578,3.951,1.625,2.040,0.000,7.579,0.001,0.000,25.988
4599,3.954,1.625,2.049,0.000,7.617,0.001,0.000,25.966
4620,3.956,1.625,2.059,0.000,7.654,0.001,0.000,25.982
4641,3.959,1.625,2.068,0.000,7.692,0.001,0.000,25.914
4662,3.962,1.625,2.078,0.000,7.729,0.001,0.000,25.923
4683,3.965,1.625,2.087,0.000,7.767,0.001,0.000,25.943
4704,3.967,1.625,2.097,0.000,7.804,0.001,0.000,25.887
4725,3.970,1.625,2.106,0.000,7.842,0.001,0.000,25.949
4746,3.973,1.625,2.116,0.000,7.880,0.001,0.000,25.948
4767,3.975,1.625,2.125,0.000,7.917,0.001,0.000,25.950
4788,3.978,1.625,2.135,0.000,7.955,0.001,0.000,25.949
4809,3.981,1.625,2.144,0.000,7.993,0.001,0.000,25.947
4830,3.983,1.625,2.154,0.000,8.031,0.001,0.000,25.965
4851,3.986,1.625,2.163,0.000,8.068,0.001,0.000,25.974
4872,3.989,1.625,2.173,0.000,8.106,0.001,0.000,25.923
4893,3.991,1.625,2.182,0.000,8.144,0.001,0.000,25.951
4914,3.994,1.625,2.192,0.000,8.182,0.001,0.000,25.994
4935,3.997,1.625,2.201,0.000,8.220,0.001,0.000,25.988
4956,3.999,1.625,2.211,0.000,8.258,0.001,0.000,25.951
4977,4.002,1.625,2.220,0.000,8.296,0.001,0.000,25.929
4998,4.005,1.625,2.230,0.000,8.334,0.001,0.000,26.010
5019,4.007,1.625,2.239,0.000,8.372,0.001,0.000,25.959
5040,4.010,1.625,2.248,0.000,8.410,0.001,0.000,25.949
5061,4.013,1.625,2.258,0.000,8.448,0.001,0.000,25.955
5082,4.015,1.625,2.267,0.000,8.486,0.001,0.000,25.972
5103,4.018,1.625,2.277,0.000,8.524,0.001,0.000,25.927
5124,4.021,1.625,2.286,0.000,8.562,0.001,0.000,26.008
5145,4.023,1.625,2.296,0.000,8.600,0.001,0.000,25.959
5166,4.026,1.625,2.305,0.000,8.638,0.001,0.000,25.960
5187,4.029,1.625,2.315,0.000,8.676,0.001,0.000,25.979
5208,4.031,1.625,2.324,0.000,8.715,0.001,0.000,25.930
5229,4.034,1.625,2.334,0.000,8.753,0.001,0.000,26.002
5250,4.037,1.625,2.343,0.000,8.791,0.001,0.000,25.961
5271,4.039,1.625,2.353,0.000,8.829,0.001,0.000,26.005
5292,4.042,1.625,2.362,0.000,8.868,0.001,0.000,25.975
5313,4.045,1.625,2.372,0.000,8.906,0.001,0.000,25.988
5334,4.048,1.625,2.381,0.000,8.944,0.001,0.000,25.969
5355,4.050,1.625,2.391,0.000,8.983,0.001,0.000,25.978
5376,4.053,1.625,2.400,0.000,9.021,0.001,0.000,25.950
5397,4.056,1.625,2.410,0.000,9.060,0.001,0.000,26.013
5418,4.058,1.625,2.419,0.000,9.098,0.001,0.000,25.998
5439,4.061,1.625,2.429,0.000,9.137,0.001,0.000,25.967
5460,4.064,1.625,2.438,0.000,9.175,0.001,0.000,25.980
5481,4.067,1.625,2.448,0.000,9.214,0.001,0.000,25.963
5502,4.070,1.625,2.457,0.000,9.252,0.001,0.000,25.978
5523,4.073,1.625,2.467,0.000,9.291,0.001,0.000,25.923
5544,4.075,1.625,2.476,0.000,9.329,0.001,0.000,25.981
5565,4.078,1.625,2.486,0.000,9.368,0.001,0.000,26.028
5586,4.081,1.625,2.495,0.000,9.407,0.001,0.000,25.980
5607,4.084,1.625,2.504,0.000,9.445,0.001,0.000,25.972
5628,4.087,1.625,2.514,0.000,9.484,0.001,0.000,25.973
5649,4.090,1.625,2.523,0.000,9.523,0.001,0.000,25.988
5670,4.093,1.625,2.533,0.000,9.562,0.001,0.000,26.014
5691,4.096,1.625,2.542,0.000,9.601,0.001,0.000,25.976
5712,4.099,1.625,2.552,0.000,9.639,0.001,0.000,25.990
5733,4.103,1.625,2.561,0.000,9.678,0.001,0.000,26.010
5754,4.106,1.625,2.571,0.000,9.717,0.001,0.000,26.042
5775,4.109,1.625,2.580,0.000,9.756,0.001,0.000,26.019
5796,4.112,1.625,2.590,0.000,9.795,0.001,0.000,26.015
5817,4.115,1.625,2.599,0.000,9.834,0.001,0.000,26.023
5838,4.119,1.625,2.609,0.000,9.873,0.001,0.000,26.015
5859,4.122,1.625,2.618,0.000,9.912,0.001,0.000,26.040
5880,4.125,1.625,2.628,0.000,9.951,0.001,0.001,26.056
5901,4.129,1.625,2.637,0.000,9.991,0.001,0.000,26.022
5922,4.132,1.625,2.647,0.000,10.030,0.001,0.000,26.025
5943,4.135,1.625,2.656,0.000,10.069,0.001,0.000,26.021
5964,4.139,1.625,2.666,0.000,10.108,0.001,0.000,26.062
5985,4.142,1.625,2.675,0.000,10.147,0.001,0.000,26.019
6006,4.146,1.625,2.685,0.000,10.187,0.001,0.000,26.013
6027,4.150,1.625,2.694,0.000,10.226,0.001,0.000,26.070
6048,4.153,1.625,2.704,0.000,10.265,0.001,0.000,26.056
6069,4.157,1.625,2.713,0.000,10.305,0.001,0.000,26.059
6090,4.160,1.625,2.723,0.000,10.344,0.001,0.000,26.043
6111,4.164,1.625,2.732,0.000,10.384,0.001,0.000,26.073
6132,4.168,1.625,2.742,0.000,10.423,0.001,0.000,26.110
6153,4.171,1.625,2.751,0.000,10.463,0.001,0.000,26.109
6174,4.175,1.625,2.760,0.000,10.502,0.001,0.000,26.068
6195,4.179,1.625,2.770,0.000,10.542,0.001,0.000,26.091
6216,4.183,1.625,2.779,0.000,10.581,0.001,0.000,26.067
6237,4.186,1.625,2.789,0.000,10.621,0.001,0.000,26.142
6258,4.190,1.625,2.798,0.000,10.661,0.001,0.000,26.098
6279,4.194,1.625,2.808,0.000,10.701,0.001,0.000,26.157
6300,4.197,1.625,2.817,0.000,10.740,0.001,0.000,26.115
6321,4.200,1.611,2.827,0.000,10.780,0.001,0.000,26.152
6342,4.200,1.558,2.836,0.000,10.819,0.001,0.000,26.146
6363,4.200,1.515,2.845,0.000,10.856,0.001,0.000,26.143
6384,4.200,1.478,2.854,0.000,10.893,0.001,0.000,26.170
6405,4.200,1.443,2.862,0.000,10.929,0.001,0.000,26.128
6426,4.200,1.412,2.871,0.000,10.964,0.001,0.000,26.104
6447,4.200,1.381,2.879,0.000,10.998,0.001,0.000,26.087
6468,4.200,1.351,2.887,0.000,11.031,0.001,0.000,26.089
6489,4.200,1.322,2.894,0.000,11.064,0.001,0.000,26.067
6510,4.200,1.295,2.902,0.000,11.096,0.001,0.000,26.092
6531,4.200,1.268,2.910,0.000,11.127,0.001,0.000,26.044
6552,4.200,1.242,2.917,0.000,11.158,0.001,0.000,25.991
6573,4.200,1.217,2.924,0.000,11.188,0.001,0.000,25.988
6594,4.200,1.193,2.931,0.000,11.218,0.001,0.000,25.912
6615,4.200,1.169,2.938,0.000,11.247,0.001,0.000,25.901
6636,4.200,1.146,2.945,0.000,11.275,0.001,0.000,25.939
6657,4.200,1.124,2.951,0.000,11.303,0.001,0.000,25.914
6678,4.200,1.102,2.958,0.000,11.330,0.001,0.000,25.865
6699,4.200,1.082,2.964,0.000,11.357,0.001,0.000,25.810
6720,4.200,1.061,2.970,0.000,11.383,0.001,0.000,25.820
6741,4.200,1.043,2.977,0.000,11.409,0.001,0.000,25.779
6762,4.200,1.024,2.983,0.000,11.434,0.001,0.000,25.794
6783,4.200,1.007,2.989,0.000,11.459,0.001,0.000,25.752
6804,4.200,0.989,2.994,0.000,11.484,0.001,0.000,25.742
6825,4.200,0.972,3.000,0.000,11.508,0.001,0.000,25.715
6846,4.200,0.955,3.006,0.000,11.531,0.001,0.000,25.696
6867,4.200,0.939,3.011,0.000,11.554,0.001,0.000,25.684
6888,4.200,0.924,3.017,0.000,11.577,0.001,0.000,25.623
6909,4.200,0.909,3.022,0.000,11.600,0.001,0.000,25.601
6930,4.200,0.894,3.027,0.000,11.622,0.001,0.000,25.575
6951,4.200,0.879,3.032,0.000,11.643,0.001,0.000,25.562
6972,4.200,0.866,3.037,0.000,11.665,0.001,0.000,25.561
6993,4.200,0.852,3.042,0.000,11.686,0.001,0.000,25.544
7014,4.200,0.839,3.047,0.000,11.707,0.001,0.000,25.470
7035,4.200,0.825,3.052,0.000,11.727,0.001,0.000,25.494
7056,4.200,0.813,3.057,0.000,11.747,0.001,0.000,25.484
7077,4.200,0.801,3.062,0.000,11.767,0.001,0.000,25.437
7098,4.200,0.789,3.066,0.000,11.786,0.001,0.000,25.426
7119,4.200,0.778,3.071,0.000,11.805,0.001,0.000,25.384
7140,4.200,0.767,3.075,0.000,11.824,0.001,0.000,25.386
7161,4.200,0.755,3.080,0.000,11.843,0.001,0.000,25.375
7182,4.200,0.744,3.084,0.000,11.861,0.001,0.000,25.416
7203,4.200,0.734,3.089,0.000,11.879,0.001,0.000,25.357
7224,4.200,0.724,3.093,0.000,11.897,0.001,0.000,25.331
7245,4.200,0.714,3.097,0.000,11.915,0.001,0.000,25.297
7266,4.200,0.703,3.101,0.000,11.932,0.001,0.000,25.292
7287,4.200,0.694,3.105,0.000,11.949,0.001,0.000,25.309
7308,4.200,0.684,3.109,0.000,11.966,0.001,0.000,25.300
7329,4.200,0.674,3.113,0.000,11.983,0.001,0.000,25.229
7350,4.200,0.666,3.117,0.000,11.999,0.001,0.000,25.264
7371,4.200,0.656,3.121,0.000,12.015,0.001,0.000,25.263
7392,4.200,0.648,3.125,0.000,12.031,0.001,0.000,25.247
7413,4.200,0.639,3.129,0.000,12.047,0.001,0.000,25.227
7434,4.200,0.629,3.132,0.000,12.063,0.001,0.000,25.188
7455,4.200,0.621,3.136,0.000,12.078,0.001,0.000,25.158
7476,4.200,0.613,3.139,0.000,12.093,0.001,0.000,25.187
7497,4.200,0.604,3.143,0.000,12.108,0.001,0.000,25.138
7518,4.200,0.595,3.147,0.000,12.123,0.001,0.000,25.142
7539,4.200,0.587,3.150,0.000,12.137,0.001,0.000,25.126
7560,4.200,0.579,3.153,0.000,12.151,0.001,0.000,25.132
7581,4.200,0.571,3.157,0.000,12.166,0.001,0.000,25.107
7602,4.200,0.562,3.160,0.000,12.179,0.001,0.000,25.086
7623,4.200,0.554,3.163,0.000,12.193,0.001,0.000,25.107
7644,4.200,0.546,3.166,0.000,12.207,0.001,0.000,25.096
7665,4.200,0.538,3.170,0.000,12.220,0.001,0.000,25.055
7686,4.200,0.531,3.173,0.000,12.233,0.001,0.000,25.051
7707,4.200,0.523,3.176,0.000,12.246,0.001,0.000,25.059
7728,4.200,0.515,3.179,0.000,12.259,0.001,0.000,25.078
7749,4.200,0.508,3.182,0.000,12.271,0.001,0.000,25.011
7770,4.200,0.500,3.185,0.000,12.283,0.001,0.000,25.030
7791,4.200,0.493,3.188,0.000,12.296,0.001,0.000,25.000
7812,4.200,0.485,3.191,0.000,12.308,0.001,0.000,24.986
7833,4.200,0.478,3.193,0.000,12.319,0.001,0.000,25.012
7854,4.200,0.470,3.196,0.000,12.331,0.001,0.000,24.983
7875,4.200,0.463,3.199,0.000,12.342,0.001,0.000,24.947
7896,4.200,0.456,3.202,0.000,12.354,0.001,0.000,24.965
7917,4.200,0.450,3.204,0.000,12.365,0.001,0.000,25.000
7938,4.200,0.442,3.207,0.000,12.376,0.001,0.000,24.970
7959,4.200,0.435,3.209,0.000,12.386,0.001,0.000,24.962
7980,4.200,0.429,3.212,0.000,12.397,0.001,0.000,24.926
8001,4.200,0.423,3.214,0.000,12.407,0.001,0.000,24.937
8022,4.200,0.415,3.217,0.000,12.418,0.001,0.000,24.944
8043,4.200,0.409,3.219,0.000,12.428,0.001,0.000,24.916
8064,4.200,0.402,3.222,0.000,12.438,0.001,0.000,24.931
8085,4.200,0.396,3.224,0.000,12.448,0.001,0.000,24.910
8106,4.200,0.390,3.226,0.000,12.457,0.001,0.000,24.916
8127,4.200,0.384,3.228,0.000,12.467,0.001,0.000,24.925
8148,4.200,0.378,3.231,0.000,12.476,0.001,0.000,24.892
8169,4.200,0.371,3.233,0.000,12.485,0.001,0.000,24.885
8190,4.200,0.365,3.235,0.000,12.494,0.001,0.000,24.907
8211,4.200,0.359,3.237,0.000,12.503,0.001,0.000,24.872
8232,4.200,0.354,3.239,0.000,12.512,0.001,0.000,24.889
8253,4.200,0.348,3.241,0.000,12.520,0.001,0.000,24.859
8274,4.200,0.342,3.243,0.000,12.529,0.001,0.000,24.833
8295,4.200,0.336,3.245,0.000,12.537,0.001,0.000,24.833
8316,4.200,0.331,3.247,0.000,12.545,0.001,0.000,24.879
8337,4.200,0.326,3.249,0.000,12.553,0.001,0.000,24.859
8358,4.200,0.320,3.251,0.000,12.561,0.001,0.000,24.829
8379,4.200,0.315,3.253,0.000,12.569,0.001,0.000,24.862
8400,4.200,0.310,3.255,0.000,12.577,0.001,0.000,24.815
8421,4.200,0.305,3.256,0.000,12.584,0.001,0.000,24.868
8442,4.200,0.299,3.258,0.000,12.592,0.001,0.000,24.826
8463,4.200,0.294,3.260,0.000,12.599,0.001,0.000,24.839
8484,4.200,0.289,3.262,0.000,12.606,0.001,0.000,24.830
8505,4.200,0.284,3.263,0.000,12.613,0.001,0.000,24.847
8526,4.200,0.279,3.265,0.000,12.620,0.001,0.000,24.803
8547,4.200,0.274,3.267,0.000,12.627,0.001,0.000,24.800
8568,4.200,0.270,3.268,0.000,12.633,0.001,0.000,24.814
8589,4.200,0.266,3.270,0.000,12.640,0.001,0.000,24.784
8610,4.200,0.261,3.271,0.000,12.646,0.001,0.000,24.816
8631,4.200,0.256,3.273,0.000,12.653,0.001,0.000,24.811
8652,4.200,0.252,3.274,0.000,12.659,0.001,0.000,24.777
8673,4.200,0.248,3.276,0.000,12.665,0.001,0.000,24.792
8694,4.200,0.243,3.277,0.000,12.671,0.001,0.000,24.795
8715,4.200,0.240,3.278,0.000,12.677,0.001,0.000,24.766
8736,4.200,0.236,3.280,0.000,12.683,0.001,0.000,24.785
8757,4.200,0.231,3.281,0.000,12.689,0.001,0.000,24.746
8778,4.200,0.227,3.283,0.000,12.694,0.001,0.000,24.734
8799,4.200,0.223,3.284,0.000,12.700,0.001,0.000,24.776
8820,4.200,0.219,3.285,0.000,12.705,0.001,0.000,24.749
8841,4.200,0.217,3.286,0.000,12.710,0.001,0.000,24.787
8862,4.200,0.211,3.288,0.000,12.716,0.001,0.000,24.733
8883,4.200,0.209,3.289,0.000,12.721,0.001,0.000,24.782
8904,4.200,0.205,3.290,0.000,12.726,0.001,0.000,24.705
8925,4.200,0.202,3.291,0.000,12.731,0.001,0.000,24.734
8946,4.200,0.198,3.292,0.000,12.736,0.001,0.000,24.749
8967,4.200,0.194,3.294,0.000,12.741,0.001,0.000,24.727
8988,4.200,0.191,3.295,0.000,12.745,0.001,0.000,24.714
9009,4.200,0.188,3.296,0.000,12.750,0.001,0.000,24.762
9030,4.200,0.185,3.297,0.000,12.755,0.001,0.000,24.708
9051,4.200,0.181,3.298,0.000,12.759,0.001,0.000,24.701
9072,4.200,0.179,3.299,0.000,12.763,0.001,0.000,24.705
9093,4.200,0.175,3.300,0.000,12.768,0.001,0.000,24.729
9114,4.200,0.172,3.301,0.000,12.772,0.001,0.000,24.719
9135,4.200,0.169,3.302,0.000,12.776,0.001,0.000,24.732
9156,4.200,0.166,3.303,0.000,12.780,0.001,0.000,24.721
9177,4.200,0.164,3.304,0.000,12.784,0.001,0.000,24.744
9198,4.200,0.161,3.305,0.000,12.788,0.001,0.000,24.734
9219,4.200,0.158,3.306,0.000,12.792,0.001,0.000,24.697
9240,4.200,0.156,3.307,0.000,12.796,0.001,0.000,24.713
9261,4.200,0.153,3.308,0.000,12.800,0.001,0.000,24.716
9282,4.200,0.151,3.309,0.000,12.804,0.001,0.000,24.731
9303,4.200,0.149,3.310,0.000,12.807,0.001,0.000,24.738
9324,4.200,0.146,3.310,0.000,12.811,0.001,0.000,24.703
9345,4.200,0.143,3.311,0.000,12.814,0.001,0.000,24.705
9366,4.200,0.141,3.312,0.000,12.818,0.001,0.000,24.692
9387,4.200,0.139,3.313,0.000,12.821,0.001,0.000,24.692
9408,4.200,0.137,3.314,0.000,12.825,0.001,0.000,24.660
9429,4.200,0.134,3.314,0.000,12.828,0.001,0.000,24.682
9450,4.200,0.132,3.315,0.000,12.831,0.001,0.000,24.732
9471,4.200,0.130,3.316,0.000,12.835,0.001,0.000,24.720
9492,4.200,0.127,3.317,0.000,12.838,0.001,0.000,24.736
9513,4.200,0.126,3.317,0.000,12.841,0.001,0.000,24.674
9534,4.200,0.124,3.318,0.000,12.844,0.001,0.000,24.682
9555,4.200,0.121,3.319,0.000,12.847,0.001,0.000,24.643
9576,4.200,0.119,3.320,0.000,12.850,0.001,0.000,24.702
9597,4.200,0.118,3.320,0.000,12.853,0.001,0.000,24.710
9618,4.200,0.117,3.321,0.000,12.856,0.001,0.000,24.680
9639,4.200,0.114,3.322,0.000,12.858,0.001,0.000,24.649
9660,4.200,0.113,3.322,0.000,12.861,0.001,0.000,24.685
9681,4.200,0.110,3.323,0.000,12.864,0.001,0.000,24.632
9702,4.200,0.109,3.324,0.000,12.867,0.001,0.000,24.670
9723,4.200,0.107,3.324,0.000,12.869,0.001,0.000,24.642
9744,4.200,0.106,3.325,0.000,12.872,0.001,0.000,24.634
9765,4.200,0.104,3.325,0.000,12.874,0.001,0.000,24.675
9786,4.200,0.102,3.326,0.000,12.877,0.001,0.000,24.686
9807,4.200,0.101,3.327,0.000,12.879,0.001,0.000,24.645
9828,4.200,0.100,3.327,0.000,12.882,0.001,0.000,24.693
9849,4.200,0.098,3.328,0.000,12.884,0.001,0.000,24.695
9870,4.200,0.097,3.328,0.000,12.887,0.001,0.000,24.631
9891,4.200,0.095,3.329,0.000,12.889,0.001,0.000,24.658
9912,4.200,0.094,3.330,0.000,12.891,0.001,0.000,24.662
9933,4.200,0.092,3.330,0.000,12.894,0.001,0.000,24.646
9954,4.200,0.091,3.331,0.000,12.896,0.001,0.000,24.698
9975,4.200,0.089,3.331,0.000,12.898,0.001,0.000,24.661
9996,4.200,0.089,3.332,0.000,12.900,0.001,0.000,24.645
10017,4.200,0.087,3.332,0.000,12.902,0.001,0.000,24.687
10038,4.200,0.086,3.333,0.000,12.904,0.001,0.000,24.642
10059,4.200,0.084,3.333,0.000,12.907,0.001,0.000,24.668
10080,4.200,0.083,3.334,0.000,12.909,0.001,0.000,24.636
10101,4.200,0.082,3.334,0.000,12.911,0.001,0.000,24.628
10122,4.200,0.080,3.335,0.000,12.913,0.001,0.000,24.650
10143,4.200,0.080,3.335,0.000,12.915,0.001,0.000,24.634
10164,4.200,0.078,3.335,0.000,12.916,0.001,0.000,24.638
10185,4.200,0.077,3.336,0.000,12.918,0.001,0.000,24.643
10206,4.200,0.075,3.336,0.000,12.920,0.001,0.000,24.703
10227,4.200,0.074,3.337,0.000,12.922,0.001,0.000,24.639
10248,4.200,0.074,3.337,0.000,12.924,0.001,0.000,24.668
10269,4.200,0.073,3.338,0.000,12.926,0.001,0.000,24.679
10290,4.200,0.072,3.338,0.000,12.927,0.001,0.000,24.652
10311,4.200,0.071,3.339,0.000,12.929,0.001,0.000,24.643
10332,4.200,0.071,3.339,0.000,12.931,0.001,0.000,24.678
10353,4.200,0.069,3.339,0.000,12.933,0.001,0.000,24.669
10374,4.200,0.069,3.340,0.000,12.934,0.001,0.000,24.625
10395,4.200,0.068,3.340,0.000,12.936,0.001,0.000,24.632
10416,4.200,0.066,3.341,0.000,12.938,0.001,0.000,24.630
10436,4.195,0.000,3.341,0.000,12.939,0.001,0.000,24.665
10457,4.194,0.000,3.341,0.000,12.939,0.001,0.000,24.636
10478,4.194,0.000,3.341,0.000,12.939,0.001,0.000,24.647
10499,4.193,0.000,3.341,0.000,12.939,0.001,0.000,24.667
10520,4.193,0.000,3.341,0.000,12.939,0.001,0.000,24.634
10541,4.192,0.000,3.341,0.000,12.939,0.001,0.000,24.614
10562,4.192,0.000,3.341,0.000,12.939,0.001,0.000,24.599
10583,4.192,0.000,3.341,0.000,12.939,0.001,0.000,24.631
10604,4.191,0.000,3.341,0.000,12.939,0.001,0.000,24.625
10625,4.191,0.000,3.341,0.000,12.939,0.001,0.000,24.657
10646,4.191,0.000,3.341,0.000,12.939,0.001,0.000,24.641
10667,4.191,0.000,3.341,0.000,12.939,0.001,0.000,24.634
10688,4.190,0.000,3.341,0.000,12.939,0.001,0.000,24.633
10709,4.190,0.000,3.341,0.000,12.939,0.001,0.000,24.622
10730,4.190,0.000,3.341,0.000,12.939,0.001,0.000,24.651
10751,4.190,0.000,3.341,0.000,12.939,0.001,0.000,24.611
10772,4.190,0.000,3.341,0.000,12.939,0.001,0.000,24.605
10793,4.189,0.000,3.341,0.000,12.939,0.001,0.000,24.624
10814,4.189,0.000,3.341,0.000,12.939,0.001,0.000,24.579
10835,4.189,0.000,3.341,0.000,12.939,0.001,0.000,24.608
10856,4.189,0.000,3.341,0.000,12.939,0.001,0.000,24.634
10877,4.188,0.000,3.341,0.000,12.939,0.001,0.000,24.614
10898,4.188,0.000,3.341,0.000,12.939,0.001,0.000,24.599
10919,4.188,0.000,3.341,0.000,12.939,0.001,0.000,24.604
10940,4.188,0.000,3.341,0.000,12.939,0.001,0.000,24.615
10961,4.188,0.000,3.341,0.000,12.939,0.001,0.000,24.624
10982,4.187,0.000,3.341,0.000,12.939,0.001,0.000,24.629
11003,4.187,0.000,3.341,0.000,12.939,0.001,0.000,24.629
11024,4.187,0.000,3.341,0.000,12.939,0.001,0.000,24.604
11045,4.187,0.000,3.341,0.000,12.939,0.001,0.000,24.605
11066,4.187,0.000,3.341,0.000,12.939,0.001,0.000,24.604
11087,4.187,0.000,3.341,0.000,12.939,0.001,0.000,24.581
11108,4.186,0.000,3.341,0.000,12.939,0.001,0.000,24.649
11129,4.186,0.000,3.341,0.000,12.939,0.001,0.000,24.616
11150,4.186,0.000,3.341,0.000,12.939,0.001,0.000,24.606
11171,4.186,0.000,3.341,0.000,12.939,0.001,0.000,24.643
11192,4.186,0.000,3.341,0.000,12.939,0.001,0.000,24.599
11213,4.186,0.000,3.341,0.000,12.939,0.001,0.000,24.631
11234,4.186,0.000,3.341,0.000,12.939,0.001,0.000,24.568
11255,4.186,0.000,3.341,0.000,12.939,0.001,0.000,24.582
11276,4.185,0.000,3.341,0.000,12.939,0.001,0.000,24.582
11297,4.185,0.000,3.341,0.000,12.939,0.001,0.000,24.592
11318,4.185,0.000,3.341,0.000,12.939,0.001,0.000,24.613
11339,4.185,0.000,3.341,0.000,12.939,0.001,0.000,24.628
11360,4.185,0.000,3.341,0.000,12.939,0.001,0.000,24.586
11381,4.185,0.000,3.341,0.000,12.939,0.001,0.000,24.545
11402,4.185,0.000,3.341,0.000,12.939,0.001,0.000,24.595
11423,4.185,0.000,3.341,0.000,12.939,0.001,0.000,24.573
11444,4.184,0.000,3.341,0.000,12.939,0.001,0.000,24.625
11465,4.184,0.000,3.341,0.000,12.939,0.001,0.000,24.601
11486,4.184,0.000,3.341,0.000,12.939,0.001,0.000,24.592
11507,4.184,0.000,3.341,0.000,12.939,0.001,0.000,24.553
11528,4.184,0.000,3.341,0.000,12.939,0.001,0.000,24.630
11549,4.184,0.000,3.341,0.000,12.939,0.001,0.000,24.599
11570,4.184,0.000,3.341,0.000,12.939,0.001,0.000,24.575
11591,4.184,0.000,3.341,0.000,12.939,0.001,0.000,24.595
11612,4.184,0.000,3.341,0.000,12.939,0.001,0.000,24.602
11633,4.183,0.000,3.341,0.000,12.939,0.001,0.000,24.582
11654,4.183,0.000,3.341,0.000,12.939,0.001,0.000,24.589
11675,4.183,0.000,3.341,0.000,12.939,0.001,0.000,24.595
11696,4.183,0.000,3.341,0.000,12.939,0.001,0.000,24.573
11717,4.183,0.000,3.341,0.000,12.939,0.001,0.000,24.585
11738,4.183,0.000,3.341,0.000,12.939,0.001,0.000,24.559
11759,4.183,0.000,3.341,0.000,12.939,0.001,0.000,24.590
11780,4.183,0.000,3.341,0.000,12.939,0.001,0.000,24.600
11801,4.183,0.000,3.341,0.000,12.939,0.001,0.000,24.617
11822,4.183,0.000,3.341,0.000,12.939,0.001,0.000,24.571
11843,4.183,0.000,3.341,0.000,12.939,0.001,0.000,24.584
11864,4.183,0.000,3.341,0.000,12.939,0.001,0.000,24.565
11885,4.182,0.000,3.341,0.000,12.939,0.001,0.000,24.576
11906,4.182,0.000,3.341,0.000,12.939,0.001,0.000,24.575
11927,4.182,0.000,3.341,0.000,12.939,0.001,0.000,24.582
11948,4.182,0.000,3.341,0.000,12.939,0.001,0.000,24.591
11969,4.182,0.000,3.341,0.000,12.939,0.001,0.000,24.557
11990,4.182,0.000,3.341,0.000,12.939,0.001,0.000,24.572
12011,4.182,0.000,3.341,0.000,12.939,0.001,0.000,24.575
12032,4.182,0.000,3.341,0.000,12.939,0.001,0.000,24.564
12053,4.182,0.000,3.341,0.000,12.939,0.001,0.000,24.575
12074,4.182,0.000,3.341,0.000,12.939,0.001,0.000,24.577
12095,4.182,0.000,3.341,0.000,12.939,0.001,0.000,24.564
12116,4.182,0.000,3.341,0.000,12.939,0.001,0.000,24.588
12137,4.181,0.000,3.341,0.000,12.939,0.001,0.000,24.578
12158,4.181,0.000,3.341,0.000,12.939,0.001,0.000,24.544
12179,4.181,0.000,3.341,0.000,12.939,0.001,0.000,24.569
12200,4.181,0.000,3.341,0.000,12.939,0.001,0.000,24.563
12221,4.181,0.000,3.341,0.000,12.939,0.001,0.000,24.559
12242,4.181,0.000,3.341,0.000,12.939,0.001,0.000,24.569
12263,4.181,0.000,3.341,0.000,12.939,0.001,0.000,24.597
12284,4.181,0.000,3.341,0.000,12.939,0.001,0.000,24.569
12305,4.181,0.000,3.341,0.000,12.939,0.001,0.000,24.591
12326,4.181,0.000,3.341,0.000,12.939,0.001,0.000,24.568
12347,4.181,0.000,3.341,0.000,12.939,0.001,0.000,24.559
12368,4.181,0.000,3.341,0.000,12.939,0.001,0.000,24.566
12389,4.181,0.000,3.341,0.000,12.939,0.001,0.000,24.586
12410,4.180,0.000,3.341,0.000,12.939,0.001,0.000,24.580
12431,4.180,0.000,3.341,0.000,12.939,0.001,0.000,24.615
12452,4.180,0.000,3.341,0.000,12.939,0.001,0.000,24.586
12473,4.180,0.000,3.341,0.000,12.939,0.001,0.000,24.595
12494,4.180,0.000,3.341,0.000,12.939,0.001,0.000,24.590
12515,4.180,0.000,3.341,0.000,12.939,0.001,0.000,24.605
12536,4.180,0.000,3.341,0.000,12.939,0.001,0.000,24.595
12557,4.180,0.000,3.341,0.000,12.939,0.001,0.000,24.551
12578,4.180,0.000,3.341,0.000,12.939,0.001,0.000,24.557
12599,4.180,0.000,3.341,0.000,12.939,0.001,0.000,24.581
12620,4.180,0.000,3.341,0.000,12.939,0.001,0.000,24.511
12641,4.180,0.000,3.341,0.000,12.939,0.001,0.000,24.576
12662,4.180,0.000,3.341,0.000,12.939,0.001,0.000,24.538
12683,4.180,0.000,3.341,0.000,12.939,0.001,0.000,24.569
12704,4.180,0.000,3.341,0.000,12.939,0.001,0.000,24.529
12725,4.180,0.000,3.341,0.000,12.939,0.001,0.000,24.564
12746,4.179,0.000,3.341,0.000,12.939,0.001,0.000,24.593
12767,4.180,0.000,3.341,0.000,12.939,0.001,0.000,24.583
12788,4.179,0.000,3.341,0.000,12.939,0.001,0.000,24.540
12809,4.180,0.000,3.341,0.000,12.939,0.001,0.000,24.632
12830,4.180,0.000,3.341,0.000,12.939,0.001,0.000,24.501
12851,4.179,0.000,3.341,0.000,12.939,0.001,0.000,24.553
12872,4.179,0.000,3.341,0.000,12.939,0.001,0.000,24.603
12893,4.179,0.000,3.341,0.000,12.939,0.001,0.000,24.597
12914,4.179,0.000,3.341,0.000,12.939,0.001,0.000,24.567
12935,4.179,0.000,3.341,0.000,12.939,0.001,0.000,24.533
12956,4.179,0.000,3.341,0.000,12.939,0.001,0.000,24.564
12977,4.179,0.000,3.341,0.000,12.939,0.001,0.000,24.545
12998,4.179,0.000,3.341,0.000,12.939,0.001,0.000,24.540
13019,4.179,0.000,3.341,0.000,12.939,0.001,0.000,24.553
13040,4.179,0.000,3.341,0.000,12.939,0.001,0.000,24.600
13061,4.179,0.000,3.341,0.000,12.939,0.001,0.000,24.551
13082,4.179,0.000,3.341,0.000,12.939,0.001,0.000,24.564
13103,4.179,0.000,3.341,0.000,12.939,0.001,0.000,24.556
13124,4.179,0.000,3.341,0.000,12.939,0.001,0.000,24.528
13145,4.178,0.000,3.341,0.000,12.939,0.001,0.000,24.514
13166,4.179,0.000,3.341,0.000,12.939,0.001,0.000,24.583
13187,4.179,0.000,3.341,0.000,12.939,0.001,0.000,24.530
13208,4.178,0.000,3.341,0.000,12.939,0.001,0.000,24.557
13229,4.178,0.000,3.341,0.000,12.939,0.001,0.000,24.507
13250,4.178,0.000,3.341,0.000,12.939,0.001,0.000,24.552
13271,4.178,0.000,3.341,0.000,12.939,0.001,0.000,24.528
13292,4.178,0.000,3.341,0.000,12.939,0.001,0.000,24.511
13313,4.178,0.000,3.341,0.000,12.939,0.001,0.000,24.562
13334,4.178,0.000,3.341,0.000,12.939,0.001,0.000,24.546
13355,4.178,0.000,3.341,0.000,12.939,0.001,0.000,24.647
13376,4.178,0.000,3.341,0.000,12.939,0.001,0.000,24.583
13397,4.178,0.000,3.341,0.000,12.939,0.001,0.000,24.661
13418,4.178,0.000,3.341,0.000,12.939,0.001,0.000,24.689
13439,4.178,0.000,3.341,0.000,12.939,0.001,0.000,24.657
13460,4.178,0.000,3.341,0.000,12.939,0.001,0.000,24.594
13481,4.178,0.000,3.341,0.000,12.939,0.001,0.000,24.599
13502,4.178,0.000,3.341,0.000,12.939,0.001,0.000,24.574
13523,4.178,0.000,3.341,0.000,12.939,0.001,0.000,24.568
13544,4.178,0.000,3.341,0.000,12.939,0.001,0.000,24.543
13565,4.178,0.000,3.341,0.000,12.939,0.001,0.000,24.596
13586,4.178,0.000,3.341,0.000,12.939,0.001,0.000,24.609
13607,4.178,0.000,3.341,0.000,12.939,0.001,0.000,24.810
13628,4.178,0.000,3.341,0.000,12.939,0.001,0.000,25.023
13649,4.178,0.000,3.341,0.000,12.939,0.001,0.000,25.174
13670,4.178,0.000,3.341,0.000,12.939,0.001,0.000,25.128
13691,4.178,0.000,3.341,0.000,12.939,0.001,0.000,24.974
13712,4.177,0.000,3.341,0.000,12.939,0.001,0.000,24.878
13733,4.177,0.000,3.341,0.000,12.939,0.001,0.000,24.756
13754,4.177,0.000,3.341,0.000,12.939,0.001,0.000,24.690
13775,4.177,0.000,3.341,0.000,12.939,0.001,0.000,24.638
13796,4.177,0.000,3.341,0.000,12.939,0.001,0.000,24.689
13817,4.177,0.000,3.341,0.000,12.939,0.001,0.000,24.631
13838,4.177,0.000,3.341,0.000,12.939,0.001,0.000,24.638
13859,4.177,0.000,3.341,0.000,12.939,0.001,0.000,24.658
13880,4.177,0.000,3.341,0.000,12.939,0.001,0.000,24.597
13901,4.177,0.000,3.341,0.000,12.939,0.001,0.000,24.624
13922,4.177,0.000,3.341,0.000,12.939,0.001,0.000,24.616
13943,4.177,0.000,3.341,0.000,12.939,0.001,0.000,24.581
13964,4.177,0.000,3.341,0.000,12.939,0.001,0.000,24.590
13985,4.177,0.000,3.341,0.000,12.939,0.001,0.000,24.551
14006,4.177,0.000,3.341,0.000,12.939,0.001,0.000,24.600
14027,4.177,0.000,3.341,0.000,12.939,0.001,0.000,24.663
14048,3.486,-10.050,3.341,0.056,12.939,0.198,-0.003,25.327
14069,3.442,-10.049,3.341,0.115,12.939,0.401,-0.002,26.939
14090,3.409,-10.049,3.341,0.173,12.939,0.602,-0.002,28.369
14111,3.381,-10.049,3.341,0.232,12.939,0.801,-0.001,29.891
14132,3.356,-10.048,3.341,0.291,12.939,0.998,-0.001,31.139
14153,3.332,-10.048,3.341,0.349,12.939,1.194,-0.001,32.355
14174,3.309,-10.048,3.341,0.408,12.939,1.389,-0.001,33.607
14195,3.285,-10.047,3.341,0.466,12.939,1.582,-0.001,34.547
14216,3.262,-10.047,3.341,0.525,12.939,1.774,-0.001,35.612
14237,3.238,-10.047,3.341,0.584,12.939,1.964,-0.001,36.478
14258,3.214,-10.047,3.341,0.642,12.939,2.153,-0.001,37.301
14279,3.190,-10.047,3.341,0.701,12.939,2.341,-0.001,38.144
14300,3.168,-10.047,3.341,0.759,12.939,2.527,-0.001,38.802
14321,3.145,-10.047,3.341,0.818,12.939,2.712,-0.001,39.584
14342,3.124,-10.047,3.341,0.877,12.939,2.896,-0.001,40.069
14363,3.102,-10.047,3.341,0.935,12.939,3.078,-0.001,40.887
14384,3.081,-10.047,3.341,0.994,12.939,3.259,-0.001,41.641
14405,3.060,-10.046,3.341,1.052,12.939,3.439,-0.001,42.096
14426,3.040,-10.046,3.341,1.111,12.939,3.618,-0.001,42.851
14447,3.020,-10.046,3.341,1.170,12.939,3.796,-0.001,43.256
14468,3.000,-10.046,3.341,1.228,12.939,3.972,-0.001,43.825
14489,2.979,-10.046,3.341,1.287,12.939,4.147,-0.001,44.483
14510,2.959,-10.046,3.341,1.345,12.939,4.321,-0.001,44.795
14531,2.938,-10.046,3.341,1.404,12.939,4.494,-0.001,45.565
14552,2.917,-10.046,3.341,1.463,12.939,4.666,-0.001,45.922
14573,2.895,-10.046,3.341,1.521,12.939,4.836,-0.001,46.309
14594,2.873,-10.046,3.341,1.580,12.939,5.005,-0.001,46.890
14615,2.850,-10.046,3.341,1.639,12.939,5.173,-0.001,47.471
14636,2.826,-10.046,3.341,1.697,12.939,5.339,-0.001,47.752
14657,2.801,-10.046,3.341,1.756,12.939,5.504,-0.001,48.336
14678,2.776,-10.046,3.341,1.814,12.939,5.667,-0.001,48.863
14699,2.749,-10.046,3.341,1.873,12.939,5.829,-0.001,49.143
14720,2.721,-10.046,3.341,1.932,12.939,5.990,-0.002,49.761
14741,2.693,-10.046,3.341,1.990,12.939,6.148,-0.001,50.236
14762,2.662,-10.046,3.341,2.049,12.939,6.305,-0.002,50.523
14783,2.630,-10.046,3.341,2.107,12.939,6.460,-0.002,51.320
14804,2.596,-10.046,3.341,2.166,12.939,6.613,-0.002,51.559
14825,2.559,-10.046,3.341,2.225,12.939,6.764,-0.002,52.401
14846,2.517,-10.046,3.341,2.283,12.939,6.913,-0.002,52.993
14866,3.372,0.000,3.341,2.305,12.939,6.968,0.006,53.676
14887,3.439,0.000,3.341,2.305,12.939,6.968,0.002,54.327
14908,3.457,0.000,3.341,2.305,12.939,6.968,0.000,54.103
14929,3.464,0.000,3.341,2.305,12.939,6.968,0.000,53.409
14950,3.469,0.000,3.341,2.305,12.939,6.968,0.000,51.907
14971,3.475,0.000,3.341,2.305,12.939,6.968,0.000,50.530
14992,3.484,0.000,3.341,2.305,12.939,6.968,0.000,49.150
15013,3.493,0.000,3.341,2.305,12.939,6.968,0.000,47.803
15034,3.502,0.000,3.341,2.305,12.939,6.968,0.001,46.392
15055,3.508,0.000,3.341,2.305,12.939,6.968,0.000,45.045
15076,3.514,0.000,3.341,2.305,12.939,6.968,0.000,43.499
15097,3.519,0.000,3.341,2.305,12.939,6.968,0.000,42.350
15118,3.523,0.000,3.341,2.305,12.939,6.968,0.000,41.363
15139,3.526,0.000,3.341,2.305,12.939,6.968,0.000,40.182
15160,3.529,0.000,3.341,2.305,12.939,6.968,0.000,39.427
15181,3.531,0.000,3.341,2.305,12.939,6.968,0.000,38.296
15202,3.533,0.000,3.341,2.305,12.939,6.968,0.000,37.600
15223,3.535,0.000,3.341,2.305,12.939,6.968,0.000,36.829
15244,3.537,0.000,3.341,2.305,12.939,6.968,0.000,36.057
15265,3.539,0.000,3.341,2.305,12.939,6.968,0.000,35.342
15286,3.540,0.000,3.341,2.305,12.939,6.968,0.000,34.666
15307,3.541,0.000,3.341,2.305,12.939,6.968,0.000,34.057
15328,3.542,0.000,3.341,2.305,12.939,6.968,0.000,33.421
15349,3.543,0.000,3.341,2.305,12.939,6.968,0.000,32.941
15370,3.544,0.000,3.341,2.305,12.939,6.968,0.000,32.432
15391,3.545,0.000,3.341,2.305,12.939,6.968,0.000,31.967
15412,3.545,0.000,3.341,2.305,12.939,6.968,0.000,31.518
15433,3.546,0.000,3.341,2.305,12.939,6.968,0.000,31.193
15454,3.547,0.000,3.341,2.305,12.939,6.968,0.000,30.788
15475,3.547,0.000,3.341,2.305,12.939,6.968,0.000,30.428
15496,3.548,0.000,3.341,2.305,12.939,6.968,0.000,30.073
15517,3.548,0.000,3.341,2.305,12.939,6.968,0.000,29.781
15538,3.549,0.000,3.341,2.305,12.939,6.968,0.000,29.469
15559,3.549,0.000,3.341,2.305,12.939,6.968,0.000,29.231
15580,3.549,0.000,3.341,2.305,12.939,6.968,0.000,28.956
15601,3.549,0.000,3.341,2.305,12.939,6.968,0.000,28.731
15622,3.550,0.000,3.341,2.305,12.939,6.968,0.000,28.445
15643,3.550,0.000,3.341,2.305,12.939,6.968,0.000,28.257
15664,3.550,0.000,3.341,2.305,12.939,6.968,0.000,28.080
15685,3.550,0.000,3.341,2.305,12.939,6.968,0.000,27.869
15706,3.550,0.000,3.341,2.305,12.939,6.968,0.000,27.653
15727,3.551,0.000,3.341,2.305,12.939,6.968,0.000,27.450
15748,3.551,0.000,3.341,2.305,12.939,6.968,0.000,27.320
15769,3.551,0.000,3.341,2.305,12.939,6.968,0.000,27.135
15790,3.551,0.000,3.341,2.305,12.939,6.968,0.000,27.023
15811,3.551,0.000,3.341,2.305,12.939,6.968,0.000,26.875
15832,3.552,0.000,3.341,2.305,12.939,6.968,0.000,26.761
15853,3.552,0.000,3.341,2.305,12.939,6.968,0.000,26.608
15874,3.552,0.000,3.341,2.305,12.939,6.968,0.000,26.510
15895,3.552,0.000,3.341,2.305,12.939,6.968,0.000,26.447
15916,3.552,0.000,3.341,2.305,12.939,6.968,0.000,26.330
15937,3.552,0.000,3.341,2.305,12.939,6.968,0.000,26.201
15958,3.552,0.000,3.341,2.305,12.939,6.968,0.000,26.149
15979,3.552,0.000,3.341,2.305,12.939,6.968,0.000,26.021
16000,3.553,0.000,3.341,2.305,12.939,6.968,0.000,25.959
16021,3.553,0.000,3.341,2.305,12.939,6.968,0.000,25.881
16042,3.553,0.000,3.341,2.305,12.939,6.968,0.000,25.854
16063,3.553,0.000,3.341,2.305,12.939,6.968,0.000,25.698
16084,3.553,0.000,3.341,2.305,12.939,6.968,0.000,25.668
16105,3.553,0.000,3.341,2.305,12.939,6.968,0.000,25.593
16126,3.553,0.000,3.341,2.305,12.939,6.968,0.000,25.541
16147,3.553,0.000,3.341,2.305,12.939,6.968,0.000,25.521
16168,3.553,0.000,3.341,2.305,12.939,6.968,0.000,25.394
16189,3.553,0.000,3.341,2.305,12.939,6.968,0.000,25.381
16210,3.553,0.000,3.341,2.305,12.939,6.968,0.000,25.323
16231,3.553,0.000,3.341,2.305,12.939,6.968,0.000,25.262
16252,3.553,0.000,3.341,2.305,12.939,6.968,0.000,25.243
16273,3.553,0.000,3.341,2.305,12.939,6.968,0.000,25.206
16294,3.553,0.000,3.341,2.305,12.939,6.968,0.000,25.213
16315,3.553,0.000,3.341,2.305,12.939,6.968,0.000,25.148
16336,3.554,0.000,3.341,2.305,12.939,6.968,0.000,25.109
16357,3.554,0.000,3.341,2.305,12.939,6.968,0.000,25.122
16378,3.554,0.000,3.341,2.305,12.939,6.968,0.000,25.063
16399,3.554,0.000,3.341,2.305,12.939,6.968,0.000,25.013
16420,3.554,0.000,3.341,2.305,12.939,6.968,0.000,24.995
16441,3.554,0.000,3.341,2.305,12.939,6.968,0.000,24.992
16462,3.554,0.000,3.341,2.305,12.939,6.968,0.000,24.972
16483,3.554,0.000,3.341,2.305,12.939,6.968,0.000,24.943
16504,3.554,0.000,3.341,2.305,12.939,6.968,0.000,24.899
16525,3.554,0.000,3.341,2.305,12.939,6.968,0.000,24.876
16546,3.554,0.000,3.341,2.305,12.939,6.968,0.000,24.869
16567,3.554,0.000,3.341,2.305,12.939,6.968,0.000,24.862
16588,3.554,0.000,3.341,2.305,12.939,6.968,0.000,24.836
16609,3.554,0.000,3.341,2.305,12.939,6.968,0.000,24.821
16630,3.554,0.000,3.341,2.305,12.939,6.968,0.000,24.837
16651,3.554,0.000,3.341,2.305,12.939,6.968,0.000,24.771
16672,3.554,0.000,3.341,2.305,12.939,6.968,0.000,24.762
16693,3.554,0.000,3.341,2.305,12.939,6.968,0.000,24.827
16714,3.554,0.000,3.341,2.305,12.939,6.968,0.000,24.754
16735,3.554,0.000,3.341,2.305,12.939,6.968,0.000,24.711
16756,3.554,0.000,3.341,2.305,12.939,6.968,0.000,24.715
16777,3.554,0.000,3.341,2.305,12.939,6.968,0.000,24.696
16798,3.554,0.000,3.341,2.305,12.939,6.968,0.000,24.737
16819,3.554,0.000,3.341,2.305,12.939,6.968,0.000,24.663
16840,3.554,0.000,3.341,2.305,12.939,6.968,0.000,24.678
16861,3.554,0.000,3.341,2.305,12.939,6.968,0.000,24.695
16882,3.555,0.000,3.341,2.305,12.939,6.968,0.000,24.638
16903,3.555,0.000,3.341,2.305,12.939,6.968,0.000,24.659
16924,3.555,0.000,3.341,2.305,12.939,6.968,0.000,24.661
16945,3.555,0.000,3.341,2.305,12.939,6.968,0.000,24.658
16966,3.555,0.000,3.341,2.305,12.939,6.968,0.000,24.616
16987,3.555,0.000,3.341,2.305,12.939,6.968,0.000,24.613
17008,3.555,0.000,3.341,2.305,12.939,6.968,0.000,24.627
17029,3.555,0.000,3.341,2.305,12.939,6.968,0.000,24.628
17050,3.555,0.000,3.341,2.305,12.939,6.968,0.000,24.600
17071,3.555,0.000,3.341,2.305,12.939,6.968,0.000,24.607
17092,3.554,0.000,3.341,2.305,12.939,6.968,0.000,24.606
17113,3.555,0.000,3.341,2.305,12.939,6.968,0.000,24.561
17134,3.555,0.000,3.341,2.305,12.939,6.968,0.000,24.550
17155,3.555,0.000,3.341,2.305,12.939,6.968,0.000,24.587
17176,3.555,0.000,3.341,2.305,12.939,6.968,0.000,24.568
17197,3.555,0.000,3.341,2.305,12.939,6.968,0.000,24.589
17218,3.555,0.000,3.341,2.305,12.939,6.968,0.000,24.569
17239,3.555,0.000,3.341,2.305,12.939,6.968,0.000,24.610
17260,3.555,0.000,3.341,2.305,12.939,6.968,0.000,24.567
17281,3.555,0.000,3.341,2.305,12.939,6.968,0.000,24.545
17302,3.555,0.000,3.341,2.305,12.939,6.968,0.000,24.536
17323,3.555,0.000,3.341,2.305,12.939,6.968,0.000,24.541
17344,3.555,0.000,3.341,2.305,12.939,6.968,0.000,24.525
17365,3.555,0.000,3.341,2.305,12.939,6.968,0.000,24.536
17386,3.555,0.000,3.341,2.305,12.939,6.968,0.000,24.499
17407,3.555,0.000,3.341,2.305,12.939,6.968,0.000,24.532
17428,3.555,0.000,3.341,2.305,12.939,6.968,0.000,24.504
17449,3.555,0.000,3.341,2.305,12.939,6.968,0.000,24.530
17470,3.555,0.000,3.341,2.305,12.939,6.968,0.000,24.562
17491,3.555,0.000,3.341,2.305,12.939,6.968,0.000,24.524
17512,3.555,0.000,3.341,2.305,12.939,6.968,0.000,24.511
17533,3.555,0.000,3.341,2.305,12.939,6.968,0.000,24.549
17554,3.555,0.000,3.341,2.305,12.939,6.968,0.000,24.555
17575,3.555,0.000,3.341,2.305,12.939,6.968,0.000,24.501
17596,3.555,0.000,3.341,2.305,12.939,6.968,0.000,24.490
17617,3.555,0.000,3.341,2.305,12.939,6.968,0.000,24.484
17638,3.555,0.000,3.341,2.305,12.939,6.968,0.000,24.566
17659,3.555,0.000,3.341,2.305,12.939,6.968,0.000,24.508
17680,3.555,0.000,3.341,2.305,12.939,6.968,0.000,24.526
17701,3.555,0.000,3.341,2.305,12.939,6.968,0.000,24.530
17722,3.555,0.000,3.341,2.305,12.939,6.968,0.000,24.512
17743,3.555,0.000,3.341,2.305,12.939,6.968,0.000,24.503
17764,3.555,0.000,3.341,2.305,12.939,6.968,0.000,24.495
17785,3.555,0.000,3.341,2.305,12.939,6.968,0.000,24.438
17806,3.555,0.000,3.341,2.305,12.939,6.968,0.000,24.487
17827,3.555,0.000,3.341,2.305,12.939,6.968,0.000,24.507
17848,3.555,0.000,3.341,2.305,12.939,6.968,0.000,24.498
17869,3.555,0.000,3.341,2.305,12.939,6.968,0.000,24.451
17890,3.555,0.000,3.341,2.305,12.939,6.968,0.000,24.476
17911,3.555,0.000,3.341,2.305,12.939,6.968,0.000,24.501
17932,3.555,0.000,3.341,2.305,12.939,6.968,0.000,24.486
17953,3.555,0.000,3.341,2.305,12.939,6.968,0.000,24.486
17974,3.555,0.000,3.341,2.305,12.939,6.968,0.000,24.513
17995,3.555,0.000,3.341,2.305,12.939,6.968,0.000,24.480
18016,3.555,0.000,3.341,2.305,12.939,6.968,0.000,24.484
18037,3.555,0.000,3.341,2.305,12.939,6.968,0.000,24.511
18058,3.555,0.000,3.341,2.305,12.939,6.968,0.000,24.478
18079,3.555,0.000,3.341,2.305,12.939,6.968,0.000,24.493
18100,3.555,0.000,3.341,2.305,12.939,6.968,0.000,24.491
18121,3.555,0.000,3.341,2.305,12.939,6.968,0.000,24.492
18142,3.555,0.000,3.341,2.305,12.939,6.968,0.000,24.506
18163,3.555,0.000,3.341,2.305,12.939,6.968,0.000,24.505
18184,3.555,0.000,3.341,2.305,12.939,6.968,0.000,24.452
18205,3.555,0.000,3.341,2.305,12.939,6.968,0.000,24.473
18226,3.556,0.000,3.341,2.305,12.939,6.968,0.000,24.522
18247,3.555,0.000,3.341,2.305,12.939,6.968,0.000,24.457
18268,3.556,0.000,3.341,2.305,12.939,6.968,0.000,24.478
18289,3.555,0.000,3.341,2.305,12.939,6.968,0.000,24.466
18310,3.555,0.000,3.341,2.305,12.939,6.968,0.000,24.474
18331,3.555,0.000,3.341,2.305,12.939,6.968,0.000,24.485
18352,3.555,0.000,3.341,2.305,12.939,6.968,0.000,24.455
18373,3.555,0.000,3.341,2.305,12.939,6.968,0.000,24.494
18394,3.556,0.000,3.341,2.305,12.939,6.968,0.000,24.476
18415,3.556,0.000,3.341,2.305,12.939,6.968,0.000,24.456
18436,3.555,0.000,3.341,2.305,12.939,6.968,0.000,24.460
18453,3.556,0.000,3.341,2.305,12.939,6.968,0.000,24.442