File: data/T25/3C/2.csv
time_s,voltage_v,current_a,chargecapacity_ah,dischargecapacity_ah,charge_energy_wh,discharge_energy_wh,voltagedot_v_per_s,temp_degc
1,3.351,0.000,0.000,0.000,0.000,0.000,0.000,24.346
25,3.351,0.000,0.000,0.000,0.000,0.000,0.000,24.339
49,3.351,0.000,0.000,0.000,0.000,0.000,0.000,24.313
73,3.351,0.000,0.000,0.000,0.000,0.000,0.000,24.330
97,3.351,0.000,0.000,0.000,0.000,0.000,0.000,24.333
121,3.351,0.000,0.000,0.000,0.000,0.000,0.000,24.363
145,3.351,0.000,0.000,0.000,0.000,0.000,0.000,24.363
169,3.351,0.000,0.000,0.000,0.000,0.000,0.000,24.293
193,3.351,0.000,0.000,0.000,0.000,0.000,0.000,24.314
217,3.351,0.000,0.000,0.000,0.000,0.000,0.000,24.363
241,3.351,0.000,0.000,0.000,0.000,0.000,0.000,24.394
265,3.351,0.000,0.000,0.000,0.000,0.000,0.000,24.366
289,3.351,0.000,0.000,0.000,0.000,0.000,0.000,24.334
313,3.351,0.000,0.000,0.000,0.000,0.000,0.000,24.354
337,3.351,0.000,0.000,0.000,0.000,0.000,0.000,24.379
361,3.351,0.000,0.000,0.000,0.000,0.000,0.000,24.403
385,3.351,0.000,0.000,0.000,0.000,0.000,0.000,24.410
409,3.351,0.000,0.000,0.000,0.000,0.000,0.000,24.393
433,3.351,0.000,0.000,0.000,0.000,0.000,0.000,24.402
457,3.351,0.000,0.000,0.000,0.000,0.000,0.000,24.431
481,3.351,0.000,0.000,0.000,0.000,0.000,0.000,24.368
505,3.351,0.000,0.000,0.000,0.000,0.000,0.000,24.376
529,3.351,0.000,0.000,0.000,0.000,0.000,0.000,24.425
553,3.351,0.000,0.000,0.000,0.000,0.000,0.000,24.410
577,3.351,0.000,0.000,0.000,0.000,0.000,0.000,24.372
601,3.351,0.000,0.000,0.000,0.000,0.000,0.000,24.381
625,3.351,0.000,0.000,0.000,0.000,0.000,0.000,24.396
649,3.351,0.000,0.000,0.000,0.000,0.000,0.000,24.395
673,3.351,0.000,0.000,0.000,0.000,0.000,0.000,24.402
697,3.351,0.000,0.000,0.000,0.000,0.000,0.000,24.370
721,3.351,0.000,0.000,0.000,0.000,0.000,0.000,24.358
745,3.351,0.000,0.000,0.000,0.000,0.000,0.000,24.402
769,3.351,0.000,0.000,0.000,0.000,0.000,0.000,24.385
793,3.351,0.000,0.000,0.000,0.000,0.000,0.000,24.392
817,3.351,0.000,0.000,0.000,0.000,0.000,0.000,24.411
841,3.351,0.000,0.000,0.000,0.000,0.000,0.000,24.400
865,3.351,0.000,0.000,0.000,0.000,0.000,0.000,24.327
889,3.351,0.000,0.000,0.000,0.000,0.000,0.000,24.354
913,3.351,0.000,0.000,0.000,0.000,0.000,0.000,24.374
937,3.351,0.000,0.000,0.000,0.000,0.000,0.000,24.372
961,3.351,0.000,0.000,0.000,0.000,0.000,0.000,24.377
985,3.351,0.000,0.000,0.000,0.000,0.000,0.000,24.378
1009,3.351,0.000,0.000,0.000,0.000,0.000,0.000,24.387
1033,3.351,0.000,0.000,0.000,0.000,0.000,0.000,24.350
1057,3.351,0.000,0.000,0.000,0.000,0.000,0.000,24.354
1081,3.351,0.000,0.000,0.000,0.000,0.000,0.000,24.367
1105,3.351,0.000,0.000,0.000,0.000,0.000,0.000,24.412
1129,3.351,0.000,0.000,0.000,0.000,0.000,0.000,24.360
1153,3.351,0.000,0.000,0.000,0.000,0.000,0.000,24.356
1177,3.351,0.000,0.000,0.000,0.000,0.000,0.000,24.370
1201,3.351,0.000,0.000,0.000,0.000,0.000,0.000,24.351
1225,3.351,0.000,0.000,0.000,0.000,0.000,0.000,24.373
1249,3.351,0.000,0.000,0.000,0.000,0.000,0.000,24.389
1273,3.351,0.000,0.000,0.000,0.000,0.000,0.000,24.421
1297,3.351,0.000,0.000,0.000,0.000,0.000,0.000,24.403
1321,3.351,0.000,0.000,0.000,0.000,0.000,0.000,24.379
1345,3.351,0.000,0.000,0.000,0.000,0.000,0.000,24.415
1369,3.351,0.000,0.000,0.000,0.000,0.000,0.000,24.355
1393,3.351,0.000,0.000,0.000,0.000,0.000,0.000,24.351
1417,3.351,0.000,0.000,0.000,0.000,0.000,0.000,24.475
1441,3.351,0.000,0.000,0.000,0.000,0.000,0.000,24.486
1465,3.351,0.000,0.000,0.000,0.000,0.000,0.000,24.466
1489,3.351,0.000,0.000,0.000,0.000,0.000,0.000,24.453
1513,3.351,0.000,0.000,0.000,0.000,0.000,0.000,24.391
1537,3.351,0.000,0.000,0.000,0.000,0.000,0.000,24.381
1561,3.351,0.000,0.000,0.000,0.000,0.000,0.000,24.364
1585,3.351,0.000,0.000,0.000,0.000,0.000,0.000,24.411
1609,3.351,0.000,0.000,0.000,0.000,0.000,0.000,24.515
1633,3.351,0.000,0.000,0.000,0.000,0.000,0.000,24.755
1657,3.351,0.000,0.000,0.000,0.000,0.000,0.000,24.943
1681,3.351,0.000,0.000,0.000,0.000,0.000,0.000,25.022
1705,3.351,0.000,0.000,0.000,0.000,0.000,0.000,25.019
1729,3.351,0.000,0.000,0.000,0.000,0.000,0.000,24.816
1753,3.351,0.000,0.000,0.000,0.000,0.000,0.000,24.641
1777,3.351,0.000,0.000,0.000,0.000,0.000,0.000,24.586
1801,3.351,0.000,0.000,0.000,0.000,0.000,0.000,24.601
1825,3.351,0.000,0.000,0.000,0.000,0.000,0.000,24.554
1849,3.351,0.000,0.000,0.000,0.000,0.000,0.000,24.512
1873,3.351,0.000,0.000,0.000,0.000,0.000,0.000,24.451
1897,3.351,0.000,0.000,0.000,0.000,0.000,0.000,24.493
1921,3.351,0.000,0.000,0.000,0.000,0.000,0.000,24.487
1945,3.351,0.000,0.000,0.000,0.000,0.000,0.000,24.475
1969,3.351,0.000,0.000,0.000,0.000,0.000,0.000,24.488
1993,3.351,0.000,0.000,0.000,0.000,0.000,0.000,24.491
2017,3.351,0.000,0.000,0.000,0.000,0.000,0.000,24.492
2041,3.351,0.000,0.000,0.000,0.000,0.000,0.000,24.419
2065,3.351,0.000,0.000,0.000,0.000,0.000,0.000,24.469
2089,3.351,0.000,0.000,0.000,0.000,0.000,0.000,24.424
2113,3.351,0.000,0.000,0.000,0.000,0.000,0.000,24.470
2137,3.351,0.000,0.000,0.000,0.000,0.000,0.000,24.460
2161,3.351,0.000,0.000,0.000,0.000,0.000,0.000,24.497
2185,3.351,0.000,0.000,0.000,0.000,0.000,0.000,24.436
2209,3.351,0.000,0.000,0.000,0.000,0.000,0.000,24.445
2233,3.351,0.000,0.000,0.000,0.000,0.000,0.000,24.442
2257,3.351,0.000,0.000,0.000,0.000,0.000,0.000,24.399
2281,3.351,0.000,0.000,0.000,0.000,0.000,0.000,24.428
2305,3.351,0.000,0.000,0.000,0.000,0.000,0.000,24.426
2329,3.351,0.000,0.000,0.000,0.000,0.000,0.000,24.465
2353,3.351,0.000,0.000,0.000,0.000,0.000,0.000,24.458
2377,3.351,0.000,0.000,0.000,0.000,0.000,0.000,24.427
2401,3.351,0.000,0.000,0.000,0.000,0.000,0.000,24.437
2425,3.351,0.000,0.000,0.000,0.000,0.000,0.000,24.456
2449,3.351,0.000,0.000,0.000,0.000,0.000,0.000,24.424
2473,3.351,0.000,0.000,0.000,0.000,0.000,0.000,24.406
2497,3.351,0.000,0.000,0.000,0.000,0.000,0.000,24.466
2521,3.351,0.000,0.000,0.000,0.000,0.000,0.000,24.448
2545,3.351,0.000,0.000,0.000,0.000,0.000,0.000,24.430
2569,3.351,0.000,0.000,0.000,0.000,0.000,0.000,24.402
2593,3.351,0.000,0.000,0.000,0.000,0.000,0.000,24.435
2617,3.351,0.000,0.000,0.000,0.000,0.000,0.000,24.415
2641,3.351,0.000,0.000,0.000,0.000,0.000,0.000,24.403
2665,3.351,0.000,0.000,0.000,0.000,0.000,0.000,24.410
2689,3.351,0.000,0.000,0.000,0.000,0.000,0.000,24.416
2713,3.351,0.000,0.000,0.000,0.000,0.000,0.000,24.402
2737,3.351,0.000,0.000,0.000,0.000,0.000,0.000,24.393
2761,3.351,0.000,0.000,0.000,0.000,0.000,0.000,24.400
2785,3.351,0.000,0.000,0.000,0.000,0.000,0.000,24.443
2809,3.351,0.000,0.000,0.000,0.000,0.000,0.000,24.408
2833,3.351,0.000,0.000,0.000,0.000,0.000,0.000,24.438
2857,3.351,0.000,0.000,0.000,0.000,0.000,0.000,24.360
2881,3.351,0.000,0.000,0.000,0.000,0.000,0.000,24.414
2905,3.351,0.000,0.000,0.000,0.000,0.000,0.000,24.388
2929,3.351,0.000,0.000,0.000,0.000,0.000,0.000,24.366
2953,3.351,0.000,0.000,0.000,0.000,0.000,0.000,24.400
2977,3.351,0.000,0.000,0.000,0.000,0.000,0.000,24.399
3001,3.351,0.000,0.000,0.000,0.000,0.000,0.000,24.404
3025,3.351,0.000,0.000,0.000,0.000,0.000,0.000,24.402
3049,3.351,0.000,0.000,0.000,0.000,0.000,0.000,24.416
3073,3.351,0.000,0.000,0.000,0.000,0.000,0.000,24.376
3097,3.351,0.000,0.000,0.000,0.000,0.000,0.000,24.382
3121,3.351,0.000,0.000,0.000,0.000,0.000,0.000,24.401
3145,3.352,0.000,0.000,0.000,0.000,0.000,0.000,24.400
3169,3.351,0.000,0.000,0.000,0.000,0.000,0.000,24.392
3193,3.352,0.000,0.000,0.000,0.000,0.000,0.000,24.369
3217,3.351,0.000,0.000,0.000,0.000,0.000,0.000,24.375
3241,3.351,0.000,0.000,0.000,0.000,0.000,0.000,24.364
3265,3.351,0.000,0.000,0.000,0.000,0.000,0.000,24.404
3289,3.351,0.000,0.000,0.000,0.000,0.000,0.000,24.368
3313,3.351,0.000,0.000,0.000,0.000,0.000,0.000,24.360
3337,3.351,0.000,0.000,0.000,0.000,0.000,0.000,24.384
3361,3.351,0.000,0.000,0.000,0.000,0.000,0.000,24.341
3385,3.352,0.000,0.000,0.000,0.000,0.000,0.000,24.378
3409,3.351,0.000,0.000,0.000,0.000,0.000,0.000,24.353
3433,3.351,0.000,0.000,0.000,0.000,0.000,0.000,24.358
3457,3.351,0.000,0.000,0.000,0.000,0.000,0.000,24.348
3481,3.351,0.000,0.000,0.000,0.000,0.000,0.000,24.389
3505,3.351,0.000,0.000,0.000,0.000,0.000,0.000,24.312
3529,3.351,0.000,0.000,0.000,0.000,0.000,0.000,24.365
3553,3.351,0.000,0.000,0.000,0.000,0.000,0.000,24.327
3577,3.351,0.000,0.000,0.000,0.000,0.000,0.000,24.309
3600,3.351,0.000,0.000,0.000,0.000,0.000,0.000,24.314
3624,3.519,1.625,0.011,0.000,0.038,0.000,0.001,24.434
3648,3.529,1.625,0.022,0.000,0.076,0.000,0.000,24.460
3672,3.536,1.625,0.033,0.000,0.115,0.000,0.000,24.538
3696,3.543,1.625,0.043,0.000,0.153,0.000,0.000,24.594
3720,3.549,1.625,0.054,0.000,0.191,0.000,0.000,24.672
3744,3.555,1.625,0.065,0.000,0.230,0.000,0.000,24.673
3768,3.560,1.625,0.076,0.000,0.268,0.000,0.000,24.765
3792,3.564,1.625,0.087,0.000,0.307,0.000,0.000,24.798
3816,3.569,1.625,0.098,0.000,0.346,0.000,0.000,24.829
3840,3.573,1.625,0.108,0.000,0.384,0.000,0.000,24.904
3864,3.577,1.625,0.119,0.000,0.423,0.000,0.000,24.880
3888,3.581,1.625,0.130,0.000,0.462,0.000,0.000,24.948
3912,3.585,1.625,0.141,0.000,0.501,0.000,0.000,24.967
3936,3.589,1.625,0.152,0.000,0.539,0.000,0.000,24.992
3960,3.593,1.625,0.163,0.000,0.578,0.000,0.000,24.995
3984,3.596,1.625,0.173,0.000,0.617,0.000,0.000,24.985
4008,3.600,1.625,0.184,0.000,0.656,0.000,0.000,25.044
4032,3.603,1.625,0.195,0.000,0.695,0.000,0.000,25.045
4056,3.607,1.625,0.206,0.000,0.734,0.000,0.000,25.025
4080,3.610,1.625,0.217,0.000,0.774,0.000,0.000,25.029
4104,3.613,1.625,0.228,0.000,0.813,0.000,0.000,25.132
4128,3.616,1.625,0.238,0.000,0.852,0.000,0.000,25.086
4152,3.619,1.625,0.249,0.000,0.891,0.000,0.000,25.101
4176,3.622,1.625,0.260,0.000,0.930,0.000,0.000,25.110
4200,3.624,1.625,0.271,0.000,0.969,0.000,0.000,25.116
4224,3.626,1.625,0.282,0.000,1.009,0.000,0.000,25.119
4248,3.628,1.625,0.293,0.000,1.048,0.000,0.000,25.090
4272,3.631,1.625,0.303,0.000,1.087,0.000,0.000,25.115
4296,3.633,1.625,0.314,0.000,1.127,0.000,0.000,25.133
4320,3.635,1.625,0.325,0.000,1.166,0.000,0.000,25.151
4344,3.637,1.625,0.336,0.000,1.206,0.000,0.000,25.141
4368,3.638,1.625,0.347,0.000,1.245,0.000,0.000,25.161
4392,3.640,1.625,0.358,0.000,1.284,0.000,0.000,25.168
4416,3.642,1.625,0.368,0.000,1.324,0.000,0.000,25.176
4440,3.644,1.625,0.379,0.000,1.363,0.000,0.000,25.184
4464,3.646,1.625,0.390,0.000,1.403,0.000,0.000,25.168
4488,3.648,1.625,0.401,0.000,1.442,0.000,0.000,25.157
4512,3.649,1.625,0.412,0.000,1.482,0.000,0.000,25.175
4536,3.652,1.625,0.423,0.000,1.521,0.000,0.000,25.210
4560,3.654,1.625,0.433,0.000,1.561,0.000,0.000,25.191
4584,3.655,1.625,0.444,0.000,1.601,0.000,0.000,25.208
4608,3.657,1.625,0.455,0.000,1.640,0.000,0.000,25.251
4632,3.659,1.625,0.466,0.000,1.680,0.000,0.000,25.250
4656,3.661,1.625,0.477,0.000,1.720,0.000,0.000,25.213
4680,3.663,1.625,0.488,0.000,1.759,0.000,0.000,25.260
4704,3.665,1.625,0.498,0.000,1.799,0.000,0.000,25.282
4728,3.667,1.625,0.509,0.000,1.839,0.000,0.000,25.287
4752,3.669,1.625,0.520,0.000,1.878,0.000,0.000,25.247
4776,3.671,1.625,0.531,0.000,1.918,0.000,0.000,25.254
4800,3.674,1.625,0.542,0.000,1.958,0.000,0.000,25.255
4824,3.676,1.625,0.553,0.000,1.998,0.000,0.000,25.282
4848,3.678,1.625,0.563,0.000,2.038,0.000,0.000,25.249
4872,3.680,1.625,0.574,0.000,2.077,0.000,0.000,25.329
4896,3.682,1.625,0.585,0.000,2.117,0.000,0.000,25.321
4920,3.684,1.625,0.596,0.000,2.157,0.000,0.000,25.282
4944,3.686,1.625,0.607,0.000,2.197,0.000,0.000,25.285
4968,3.689,1.625,0.618,0.000,2.237,0.000,0.000,25.309
4992,3.691,1.625,0.628,0.000,2.277,0.000,0.000,25.259
5016,3.693,1.625,0.639,0.000,2.317,0.000,0.000,25.295
5040,3.695,1.625,0.650,0.000,2.357,0.000,0.000,25.317
5064,3.698,1.625,0.661,0.000,2.397,0.000,0.000,25.383
5088,3.700,1.625,0.672,0.000,2.437,0.000,0.000,25.335
5112,3.702,1.625,0.683,0.000,2.477,0.000,0.000,25.319
5136,3.704,1.625,0.694,0.000,2.518,0.000,0.000,25.385
5160,3.706,1.625,0.704,0.000,2.558,0.000,0.000,25.326
5184,3.708,1.625,0.715,0.000,2.598,0.000,0.000,25.377
5208,3.711,1.625,0.726,0.000,2.638,0.000,0.000,25.340
5232,3.713,1.625,0.737,0.000,2.678,0.000,0.000,25.358
5256,3.715,1.625,0.748,0.000,2.719,0.000,0.000,25.355
5280,3.717,1.625,0.759,0.000,2.759,0.000,0.000,25.367
5304,3.719,1.625,0.769,0.000,2.799,0.000,0.000,25.367
5328,3.721,1.625,0.780,0.000,2.839,0.000,0.000,25.379
5352,3.723,1.625,0.791,0.000,2.880,0.000,0.000,25.405
5376,3.725,1.625,0.802,0.000,2.920,0.000,0.000,25.415
5400,3.727,1.625,0.813,0.000,2.960,0.000,0.000,25.401
5424,3.729,1.625,0.824,0.000,3.001,0.000,0.000,25.420
5448,3.731,1.625,0.834,0.000,3.041,0.000,0.000,25.388
5472,3.733,1.625,0.845,0.000,3.082,0.000,0.000,25.412
5496,3.735,1.625,0.856,0.000,3.122,0.000,0.000,25.393
5520,3.737,1.625,0.867,0.000,3.163,0.000,0.000,25.440
5544,3.739,1.625,0.878,0.000,3.203,0.000,0.000,25.384
5568,3.741,1.625,0.889,0.000,3.244,0.000,0.000,25.453
5592,3.743,1.625,0.899,0.000,3.284,0.000,0.000,25.448
5616,3.745,1.625,0.910,0.000,3.325,0.000,0.000,25.409
5640,3.747,1.625,0.921,0.000,3.365,0.000,0.000,25.458
5664,3.749,1.625,0.932,0.000,3.406,0.000,0.000,25.440
5688,3.751,1.625,0.943,0.000,3.447,0.000,0.000,25.480
5712,3.753,1.625,0.954,0.000,3.487,0.000,0.000,25.452
5736,3.755,1.625,0.964,0.000,3.528,0.000,0.000,25.487
5760,3.757,1.625,0.975,0.000,3.569,0.000,0.000,25.493
5784,3.759,1.625,0.986,0.000,3.609,0.000,0.000,25.471
5808,3.761,1.625,0.997,0.000,3.650,0.000,0.000,25.490
5832,3.763,1.625,1.008,0.000,3.691,0.000,0.000,25.525
5856,3.765,1.625,1.019,0.000,3.732,0.000,0.000,25.449
5880,3.767,1.625,1.029,0.000,3.772,0.000,0.000,25.496
5904,3.769,1.625,1.040,0.000,3.813,0.000,0.000,25.498
5928,3.771,1.625,1.051,0.000,3.854,0.000,0.000,25.514
5952,3.773,1.625,1.062,0.000,3.895,0.000,0.000,25.473
5976,3.775,1.625,1.073,0.000,3.936,0.000,0.000,25.493
6000,3.777,1.625,1.084,0.000,3.977,0.000,0.000,25.474
6024,3.780,1.625,1.094,0.000,4.018,0.000,0.000,25.520
6048,3.782,1.625,1.105,0.000,4.059,0.000,0.000,25.523
6072,3.784,1.625,1.116,0.000,4.100,0.000,0.000,25.456
6096,3.786,1.625,1.127,0.000,4.141,0.000,0.000,25.493
6120,3.788,1.625,1.138,0.000,4.182,0.000,0.000,25.536
6144,3.791,1.625,1.149,0.000,4.223,0.000,0.000,25.489
6168,3.793,1.625,1.159,0.000,4.264,0.000,0.000,25.453
6192,3.795,1.625,1.170,0.000,4.305,0.000,0.000,25.483
6216,3.797,1.625,1.181,0.000,4.346,0.000,0.000,25.474
6240,3.800,1.625,1.192,0.000,4.387,0.000,0.000,25.510
6264,3.802,1.625,1.203,0.000,4.429,0.000,0.000,25.492
6288,3.804,1.625,1.214,0.000,4.470,0.000,0.000,25.526
6312,3.807,1.625,1.224,0.000,4.511,0.000,0.000,25.531
6336,3.809,1.625,1.235,0.000,4.552,0.000,0.000,25.546
6360,3.812,1.625,1.246,0.000,4.594,0.000,0.000,25.560
6384,3.814,1.625,1.257,0.000,4.635,0.000,0.000,25.474
6408,3.817,1.625,1.268,0.000,4.676,0.000,0.000,25.550
6432,3.819,1.625,1.279,0.000,4.718,0.000,0.000,25.493
6456,3.822,1.625,1.289,0.000,4.759,0.000,0.000,25.526
6480,3.824,1.625,1.300,0.000,4.800,0.000,0.000,25.516
6504,3.827,1.625,1.311,0.000,4.842,0.000,0.000,25.582
6528,3.829,1.625,1.322,0.000,4.883,0.000,0.000,25.537
6552,3.832,1.625,1.333,0.000,4.925,0.000,0.000,25.557
6576,3.835,1.625,1.344,0.000,4.966,0.000,0.000,25.531
6600,3.838,1.625,1.354,0.000,5.008,0.000,0.000,25.510
6624,3.840,1.625,1.365,0.000,5.050,0.000,0.000,25.531
6648,3.843,1.625,1.376,0.000,5.091,0.000,0.000,25.536
6672,3.846,1.625,1.387,0.000,5.133,0.000,0.000,25.512
6696,3.849,1.625,1.398,0.000,5.174,0.000,0.000,25.560
6720,3.852,1.625,1.409,0.000,5.216,0.000,0.000,25.594
6744,3.854,1.625,1.420,0.000,5.258,0.000,0.000,25.535
6768,3.857,1.625,1.430,0.000,5.300,0.000,0.000,25.578
6792,3.860,1.625,1.441,0.000,5.342,0.000,0.000,25.545
6816,3.863,1.625,1.452,0.000,5.383,0.000,0.000,25.532
6840,3.866,1.625,1.463,0.000,5.425,0.000,0.000,25.546
6864,3.869,1.625,1.474,0.000,5.467,0.000,0.000,25.559
6888,3.872,1.625,1.485,0.000,5.509,0.000,0.000,25.520
6912,3.875,1.625,1.495,0.000,5.551,0.000,0.000,25.567
6936,3.878,1.625,1.506,0.000,5.593,0.000,0.000,25.577
6960,3.881,1.625,1.517,0.000,5.635,0.000,0.000,25.578
6984,3.884,1.625,1.528,0.000,5.677,0.000,0.000,25.507
7008,3.887,1.625,1.539,0.000,5.719,0.000,0.000,25.537
7032,3.890,1.625,1.550,0.000,5.761,0.000,0.000,25.598
7056,3.893,1.625,1.560,0.000,5.804,0.000,0.000,25.536
7080,3.896,1.625,1.571,0.000,5.846,0.000,0.000,25.612
7104,3.900,1.625,1.582,0.000,5.888,0.000,0.000,25.560
7128,3.903,1.625,1.593,0.000,5.930,0.000,0.000,25.574
7152,3.906,1.625,1.604,0.000,5.973,0.000,0.000,25.547
7176,3.909,1.625,1.615,0.000,6.015,0.000,0.000,25.565
7200,3.912,1.625,1.625,0.000,6.057,0.000,0.000,25.590
7224,3.915,1.625,1.636,0.000,6.100,0.000,0.000,25.578
7248,3.918,1.625,1.647,0.000,6.142,0.000,0.000,25.559
7272,3.922,1.625,1.658,0.000,6.185,0.000,0.000,25.589
7296,3.925,1.625,1.669,0.000,6.227,0.000,0.000,25.599
7320,3.928,1.625,1.680,0.000,6.270,0.000,0.000,25.621
7344,3.931,1.625,1.690,0.000,6.312,0.000,0.000,25.576
7368,3.934,1.625,1.701,0.000,6.355,0.000,0.000,25.525
7392,3.938,1.625,1.712,0.000,6.398,0.000,0.000,25.578
7416,3.941,1.625,1.723,0.000,6.440,0.000,0.000,25.578
7440,3.944,1.625,1.734,0.000,6.483,0.000,0.000,25.579
7464,3.947,1.625,1.745,0.000,6.526,0.000,0.000,25.569
7488,3.950,1.625,1.755,0.000,6.569,0.000,0.000,25.576
7512,3.954,1.625,1.766,0.000,6.611,0.000,0.000,25.539
7536,3.957,1.625,1.777,0.000,6.654,0.000,0.000,25.588
7560,3.960,1.625,1.788,0.000,6.697,0.000,0.000,25.552
7584,3.963,1.625,1.799,0.000,6.740,0.000,0.000,25.542
7608,3.966,1.625,1.810,0.000,6.783,0.000,0.000,25.566
7632,3.969,1.625,1.820,0.000,6.826,0.000,0.000,25.545
7656,3.973,1.625,1.831,0.000,6.869,0.000,0.000,25.568
7680,3.976,1.625,1.842,0.000,6.912,0.000,0.000,25.564
7704,3.979,1.625,1.853,0.000,6.955,0.000,0.000,25.541
7728,3.982,1.625,1.864,0.000,6.998,0.000,0.000,25.554
7752,3.985,1.625,1.875,0.000,7.041,0.000,0.000,25.540
7776,3.988,1.625,1.885,0.000,7.085,0.000,0.000,25.560
7800,3.991,1.625,1.896,0.000,7.128,0.000,0.000,25.549
7824,3.995,1.625,1.907,0.000,7.171,0.000,0.000,25.563
7848,3.998,1.625,1.918,0.000,7.214,0.000,0.000,25.574
7872,4.001,1.625,1.929,0.000,7.258,0.000,0.000,25.562
7896,4.004,1.625,1.940,0.000,7.301,0.000,0.000,25.518
7920,4.007,1.625,1.950,0.000,7.345,0.000,0.000,25.551
7944,4.010,1.625,1.961,0.000,7.388,0.000,0.000,25.540
7968,4.013,1.625,1.972,0.000,7.431,0.000,0.000,25.555
7992,4.017,1.625,1.983,0.000,7.475,0.000,0.000,25.548
8016,4.020,1.625,1.994,0.000,7.519,0.000,0.000,25.534
8040,4.023,1.625,2.005,0.000,7.562,0.000,0.000,25.522
8064,4.026,1.625,2.015,0.000,7.606,0.000,0.000,25.571
8088,4.029,1.625,2.026,0.000,7.649,0.000,0.000,25.512
8112,4.032,1.625,2.037,0.000,7.693,0.000,0.000,25.573
8136,4.035,1.625,2.048,0.000,7.737,0.000,0.000,25.532
8160,4.038,1.625,2.059,0.000,7.780,0.000,0.000,25.534
8184,4.042,1.625,2.070,0.000,7.824,0.000,0.000,25.542
8208,4.045,1.625,2.081,0.000,7.868,0.000,0.000,25.567
8232,4.048,1.625,2.091,0.000,7.912,0.000,0.000,25.570
8256,4.051,1.625,2.102,0.000,7.956,0.000,0.000,25.617
8280,4.055,1.625,2.113,0.000,8.000,0.000,0.000,25.565
8304,4.058,1.625,2.124,0.000,8.044,0.000,0.000,25.583
8328,4.061,1.625,2.135,0.000,8.088,0.000,0.000,25.564
8352,4.064,1.625,2.146,0.000,8.132,0.000,0.000,25.549
8376,4.068,1.625,2.156,0.000,8.176,0.000,0.000,25.568
8400,4.071,1.625,2.167,0.000,8.220,0.000,0.000,25.584
8424,4.074,1.625,2.178,0.000,8.264,0.000,0.000,25.563
8448,4.078,1.625,2.189,0.000,8.308,0.000,0.000,25.589
8472,4.081,1.625,2.200,0.000,8.352,0.000,0.000,25.572
8496,4.085,1.625,2.211,0.000,8.397,0.000,0.000,25.565
8520,4.088,1.625,2.221,0.000,8.441,0.000,0.000,25.607
8544,4.092,1.625,2.232,0.000,8.485,0.000,0.000,25.552
8568,4.096,1.625,2.243,0.000,8.530,0.000,0.000,25.604
8592,4.099,1.625,2.254,0.000,8.574,0.000,0.000,25.597
8616,4.103,1.625,2.265,0.000,8.618,0.000,0.000,25.593
8640,4.107,1.625,2.276,0.000,8.663,0.000,0.000,25.644
8664,4.111,1.625,2.286,0.000,8.707,0.000,0.000,25.577
8688,4.114,1.625,2.297,0.000,8.752,0.000,0.000,25.595
8712,4.118,1.625,2.308,0.000,8.797,0.000,0.000,25.626
8736,4.122,1.625,2.319,0.000,8.841,0.000,0.000,25.602
8760,4.126,1.625,2.330,0.000,8.886,0.000,0.000,25.662
8784,4.130,1.625,2.341,0.000,8.931,0.000,0.000,25.644
8808,4.134,1.625,2.351,0.000,8.975,0.000,0.000,25.663
8832,4.139,1.625,2.362,0.000,9.020,0.000,0.000,25.651
8856,4.143,1.625,2.373,0.000,9.065,0.000,0.000,25.666
8880,4.147,1.625,2.384,0.000,9.110,0.000,0.000,25.673
8904,4.151,1.625,2.395,0.000,9.155,0.000,0.000,25.649
8928,4.155,1.625,2.406,0.000,9.200,0.000,0.000,25.663
8952,4.160,1.625,2.416,0.000,9.245,0.000,0.000,25.642
8976,4.164,1.625,2.427,0.000,9.290,0.000,0.000,25.668
9000,4.168,1.625,2.438,0.000,9.335,0.000,0.000,25.720
9024,4.173,1.625,2.449,0.000,9.380,0.000,0.000,25.732
9048,4.177,1.625,2.460,0.000,9.426,0.000,0.000,25.698
9072,4.182,1.625,2.471,0.000,9.471,0.000,0.000,25.726
9096,4.186,1.625,2.481,0.000,9.516,0.000,0.000,25.707
9120,4.190,1.625,2.492,0.000,9.562,0.000,0.000,25.716
9144,4.194,1.625,2.503,0.000,9.607,0.000,0.000,25.765
9168,4.199,1.625,2.514,0.000,9.653,0.000,0.000,25.707
9192,4.200,1.573,2.525,0.000,9.697,0.000,0.000,25.740
9216,4.200,1.517,2.535,0.000,9.740,0.000,0.000,25.700
9240,4.200,1.470,2.545,0.000,9.782,0.000,0.000,25.686
9264,4.200,1.428,2.554,0.000,9.823,0.000,0.000,25.705
9288,4.200,1.389,2.564,0.000,9.862,0.000,0.000,25.712
9312,4.200,1.353,2.573,0.000,9.900,0.000,0.000,25.734
9336,4.200,1.318,2.582,0.000,9.938,0.000,0.000,25.655
9360,4.200,1.285,2.590,0.000,9.974,0.000,0.000,25.645
9384,4.200,1.253,2.599,0.000,10.010,0.000,0.000,25.649
9408,4.200,1.223,2.607,0.000,10.044,0.000,0.000,25.606
9432,4.200,1.193,2.615,0.000,10.078,0.000,0.000,25.586
9456,4.200,1.165,2.623,0.000,10.111,0.000,0.000,25.553
9480,4.200,1.137,2.631,0.000,10.143,0.000,0.000,25.549
9504,4.200,1.112,2.638,0.000,10.175,0.000,0.000,25.519
9528,4.200,1.087,2.646,0.000,10.206,0.000,0.000,25.476
9552,4.200,1.063,2.653,0.000,10.236,0.000,0.000,25.447
9576,4.200,1.040,2.660,0.000,10.265,0.000,0.000,25.447
9600,4.200,1.017,2.667,0.000,10.294,0.000,0.000,25.415
9624,4.200,0.996,2.673,0.000,10.322,0.000,0.000,25.388
9648,4.200,0.976,2.680,0.000,10.350,0.000,0.000,25.385
9672,4.200,0.956,2.686,0.000,10.377,0.000,0.000,25.364
9696,4.200,0.936,2.693,0.000,10.403,0.000,0.000,25.353
9720,4.200,0.916,2.699,0.000,10.429,0.000,0.000,25.296
9744,4.200,0.901,2.705,0.000,10.455,0.000,0.000,25.282
9768,4.200,0.882,2.711,0.000,10.479,0.000,0.000,25.244
9792,4.200,0.865,2.717,0.000,10.504,0.000,0.000,25.260
9816,4.200,0.848,2.722,0.000,10.528,0.000,0.000,25.210
9840,4.200,0.832,2.728,0.000,10.551,0.000,0.000,25.197
9864,4.200,0.817,2.733,0.000,10.574,0.000,0.000,25.211
9888,4.200,0.801,2.739,0.000,10.597,0.000,0.000,25.172
9912,4.200,0.787,2.744,0.000,10.619,0.000,0.000,25.154
9936,4.200,0.774,2.749,0.000,10.641,0.000,0.000,25.097
9960,4.200,0.760,2.754,0.000,10.663,0.000,0.000,25.100
9984,4.200,0.746,2.759,0.000,10.684,0.000,0.000,25.091
10008,4.200,0.733,2.764,0.000,10.704,0.000,0.000,25.110
10032,4.200,0.721,2.769,0.000,10.725,0.000,0.000,25.099
10056,4.200,0.707,2.774,0.000,10.745,0.000,0.000,25.064
10080,4.200,0.697,2.779,0.000,10.764,0.000,0.000,25.043
10104,4.200,0.684,2.783,0.000,10.784,0.000,0.000,25.002
10128,4.200,0.673,2.788,0.000,10.803,0.000,0.000,24.956
10152,4.200,0.660,2.792,0.000,10.821,0.000,0.000,24.985
10176,4.200,0.649,2.797,0.000,10.840,0.000,0.000,25.028
10200,4.200,0.638,2.801,0.000,10.858,0.000,0.000,24.976
10224,4.200,0.626,2.805,0.000,10.875,0.000,0.000,24.933
10248,4.200,0.616,2.809,0.000,10.893,0.000,0.000,24.918
10272,4.200,0.605,2.813,0.000,10.910,0.000,0.000,24.909
10296,4.200,0.594,2.817,0.000,10.927,0.000,0.000,24.864
10320,4.200,0.583,2.821,0.000,10.943,0.000,0.000,24.897
10344,4.200,0.573,2.825,0.000,10.959,0.000,0.000,24.898
10368,4.200,0.562,2.829,0.000,10.975,0.000,0.000,24.887
10392,4.200,0.553,2.833,0.000,10.991,0.000,0.000,24.856
10416,4.200,0.542,2.836,0.000,11.006,0.000,0.000,24.856
10440,4.200,0.532,2.840,0.000,11.021,0.000,0.000,24.804
10464,4.200,0.522,2.843,0.000,11.036,0.000,0.000,24.851
10488,4.200,0.513,2.847,0.000,11.050,0.000,0.000,24.771
10512,4.200,0.503,2.850,0.000,11.065,0.000,0.000,24.807
10536,4.200,0.494,2.853,0.000,11.079,0.000,0.000,24.801
10560,4.200,0.485,2.857,0.000,11.092,0.000,0.000,24.813
10584,4.200,0.475,2.860,0.000,11.106,0.000,0.000,24.817
10608,4.200,0.466,2.863,0.000,11.119,0.000,0.000,24.770
10632,4.200,0.458,2.866,0.000,11.132,0.000,0.000,24.740
10656,4.200,0.449,2.869,0.000,11.145,0.000,0.000,24.721
10680,4.200,0.440,2.872,0.000,11.157,0.000,0.000,24.734
10704,4.200,0.431,2.875,0.000,11.169,0.000,0.000,24.717
10728,4.200,0.423,2.878,0.000,11.181,0.000,0.000,24.693
10752,4.200,0.416,2.881,0.000,11.193,0.000,0.000,24.721
10776,4.200,0.407,2.883,0.000,11.204,0.000,0.000,24.672
10800,4.200,0.399,2.886,0.000,11.216,0.000,0.000,24.679
10824,4.200,0.391,2.889,0.000,11.227,0.000,0.000,24.704
10848,4.200,0.384,2.891,0.000,11.238,0.000,0.000,24.651
10872,4.200,0.376,2.894,0.000,11.248,0.000,0.000,24.636
10896,4.200,0.369,2.896,0.000,11.259,0.000,0.000,24.655
10920,4.200,0.362,2.899,0.000,11.269,0.000,0.000,24.661
10944,4.200,0.354,2.901,0.000,11.279,0.000,0.000,24.660
10968,4.200,0.346,2.903,0.000,11.289,0.000,0.000,24.599
10992,4.200,0.340,2.906,0.000,11.298,0.000,0.000,24.668
11016,4.200,0.333,2.908,0.000,11.308,0.000,0.000,24.615
11040,4.200,0.325,2.910,0.000,11.317,0.000,0.000,24.592
11064,4.200,0.319,2.912,0.000,11.326,0.000,0.000,24.621
11088,4.200,0.312,2.914,0.000,11.335,0.000,0.000,24.649
11112,4.200,0.305,2.916,0.000,11.343,0.000,0.000,24.631
11136,4.200,0.299,2.919,0.000,11.352,0.000,0.000,24.604
11160,4.200,0.293,2.920,0.000,11.360,0.000,0.000,24.634
11184,4.200,0.288,2.922,0.000,11.368,0.000,0.000,24.586
11208,4.200,0.281,2.924,0.000,11.376,0.000,0.000,24.561
11232,4.200,0.275,2.926,0.000,11.384,0.000,0.000,24.616
11256,4.200,0.269,2.928,0.000,11.392,0.000,0.000,24.598
11280,4.200,0.263,2.930,0.000,11.399,0.000,0.000,24.575
11304,4.200,0.258,2.931,0.000,11.406,0.000,0.000,24.555
11328,4.200,0.253,2.933,0.000,11.413,0.000,0.000,24.565
11352,4.200,0.247,2.935,0.000,11.420,0.000,0.000,24.491
11376,4.200,0.242,2.936,0.000,11.427,0.000,0.000,24.548
11400,4.200,0.238,2.938,0.000,11.434,0.000,0.000,24.559
11424,4.200,0.233,2.940,0.000,11.441,0.000,0.000,24.484
11448,4.200,0.227,2.941,0.000,11.447,0.000,0.000,24.557
11472,4.200,0.222,2.943,0.000,11.453,0.000,0.000,24.529
11496,4.200,0.217,2.944,0.000,11.459,0.000,0.000,24.496
11520,4.200,0.212,2.946,0.000,11.465,0.000,0.000,24.542
11544,4.200,0.208,2.947,0.000,11.471,0.000,0.000,24.582
11568,4.200,0.203,2.948,0.000,11.477,0.000,0.000,24.559
11592,4.200,0.200,2.950,0.000,11.483,0.000,0.000,24.481
11616,4.200,0.195,2.951,0.000,11.488,0.000,0.000,24.513
11640,4.200,0.191,2.952,0.000,11.494,0.000,0.000,24.489
11664,4.200,0.187,2.954,0.000,11.499,0.000,0.000,24.498
11688,4.200,0.184,2.955,0.000,11.504,0.000,0.000,24.480
11712,4.200,0.180,2.956,0.000,11.509,0.000,0.000,24.465
11736,4.200,0.175,2.957,0.000,11.514,0.000,0.000,24.475
11760,4.200,0.172,2.958,0.000,11.519,0.000,0.000,24.468
11784,4.200,0.168,2.959,0.000,11.524,0.000,0.000,24.470
11808,4.200,0.164,2.961,0.000,11.528,0.000,0.000,24.491
11832,4.200,0.161,2.962,0.000,11.533,0.000,0.000,24.490
11856,4.200,0.158,2.963,0.000,11.538,0.000,0.000,24.474
11880,4.200,0.155,2.964,0.000,11.542,0.000,0.000,24.461
11904,4.200,0.152,2.965,0.000,11.546,0.000,0.000,24.472
11928,4.200,0.148,2.966,0.000,11.550,0.000,0.000,24.462
11952,4.200,0.144,2.967,0.000,11.554,0.000,0.000,24.481
11976,4.200,0.142,2.968,0.000,11.558,0.000,0.000,24.454
12000,4.200,0.138,2.969,0.000,11.562,0.000,0.000,24.439
12024,4.200,0.136,2.970,0.000,11.566,0.000,0.000,24.450
12048,4.200,0.133,2.970,0.000,11.570,0.000,0.000,24.428
12072,4.200,0.131,2.971,0.000,11.574,0.000,0.000,24.457
12096,4.200,0.128,2.972,0.000,11.577,0.000,0.000,24.439
12120,4.200,0.126,2.973,0.000,11.581,0.000,0.000,24.475
12144,4.200,0.123,2.974,0.000,11.584,0.000,0.000,24.418
12168,4.200,0.120,2.975,0.000,11.588,0.000,0.000,24.475
12192,4.200,0.117,2.975,0.000,11.591,0.000,0.000,24.471
12216,4.200,0.116,2.976,0.000,11.594,0.000,0.000,24.452
12240,4.200,0.112,2.977,0.000,11.598,0.000,0.000,24.449
12264,4.200,0.111,2.978,0.000,11.601,0.000,0.000,24.453
12288,4.200,0.108,2.979,0.000,11.604,0.000,0.000,24.412
12312,4.200,0.107,2.979,0.000,11.607,0.000,0.000,24.442
12336,4.200,0.105,2.980,0.000,11.610,0.000,0.000,24.424
12360,4.200,0.102,2.981,0.000,11.613,0.000,0.000,24.461
12384,4.200,0.100,2.981,0.000,11.615,0.000,0.000,24.420
12408,4.200,0.098,2.982,0.000,11.618,0.000,0.000,24.425
12432,4.200,0.096,2.983,0.000,11.621,0.000,0.000,24.404
12456,4.200,0.095,2.983,0.000,11.624,0.000,0.000,24.400
12480,4.200,0.093,2.984,0.000,11.626,0.000,0.000,24.432
12504,4.200,0.090,2.984,0.000,11.629,0.000,0.000,24.375
12528,4.200,0.089,2.985,0.000,11.631,0.000,0.000,24.452
12552,4.200,0.088,2.986,0.000,11.634,0.000,0.000,24.397
12576,4.200,0.086,2.986,0.000,11.636,0.000,0.000,24.385
12600,4.200,0.084,2.987,0.000,11.639,0.000,0.000,24.417
12624,4.200,0.083,2.987,0.000,11.641,0.000,0.000,24.417
12648,4.200,0.081,2.988,0.000,11.643,0.000,0.000,24.500
12672,4.200,0.079,2.988,0.000,11.646,0.000,0.000,24.522
12696,4.200,0.077,2.989,0.000,11.648,0.000,0.000,24.522
12720,4.200,0.076,2.989,0.000,11.650,0.000,0.000,24.532
12744,4.200,0.075,2.990,0.000,11.652,0.000,0.000,24.447
12768,4.200,0.074,2.990,0.000,11.654,0.000,0.000,24.431
12792,4.200,0.072,2.991,0.000,11.656,0.000,0.000,24.411
12816,4.200,0.071,2.991,0.000,11.658,0.000,0.000,24.512
12840,4.200,0.070,2.992,0.000,11.660,0.000,0.000,24.684
12864,4.200,0.069,2.992,0.000,11.662,0.000,0.000,24.917
12888,4.200,0.067,2.993,0.000,11.664,0.000,0.000,25.252
12912,4.200,0.066,2.993,0.000,11.666,0.000,0.000,25.463
12935,4.195,0.000,2.993,0.000,11.666,0.000,0.000,25.471
12959,4.194,0.000,2.993,0.000,11.666,0.000,0.000,25.311
12983,4.193,0.000,2.993,0.000,11.666,0.000,0.000,25.103
13007,4.193,0.000,2.993,0.000,11.666,0.000,0.000,24.999
13031,4.192,0.000,2.993,0.000,11.666,0.000,0.000,24.978
13055,4.192,0.000,2.993,0.000,11.666,0.000,0.000,24.910
13079,4.192,0.000,2.993,0.000,11.666,0.000,0.000,24.784
13103,4.191,0.000,2.993,0.000,11.666,0.000,0.000,24.711
13127,4.191,0.000,2.993,0.000,11.666,0.000,0.000,24.647
13151,4.191,0.000,2.993,0.000,11.666,0.000,0.000,24.600
13175,4.190,0.000,2.993,0.000,11.666,0.000,0.000,24.542
13199,4.190,0.000,2.993,0.000,11.666,0.000,0.000,24.581
13223,4.190,0.000,2.993,0.000,11.666,0.000,0.000,24.540
13247,4.190,0.000,2.993,0.000,11.666,0.000,0.000,24.564
13271,4.189,0.000,2.993,0.000,11.666,0.000,0.000,24.505
13295,4.189,0.000,2.993,0.000,11.666,0.000,0.000,24.519
13319,4.189,0.000,2.993,0.000,11.666,0.000,0.000,24.541
13343,4.189,0.000,2.993,0.000,11.666,0.000,0.000,24.586
13367,4.188,0.000,2.993,0.000,11.666,0.000,0.000,24.549
13391,4.188,0.000,2.993,0.000,11.666,0.000,0.000,24.549
13415,4.188,0.000,2.993,0.000,11.666,0.000,0.000,24.551
13439,4.188,0.000,2.993,0.000,11.666,0.000,0.000,24.521
13463,4.188,0.000,2.993,0.000,11.666,0.000,0.000,24.513
13487,4.188,0.000,2.993,0.000,11.666,0.000,0.000,24.513
13511,4.187,0.000,2.993,0.000,11.666,0.000,0.000,24.504
13535,4.187,0.000,2.993,0.000,11.666,0.000,0.000,24.530
13559,4.187,0.000,2.993,0.000,11.666,0.000,0.000,24.508
13583,4.187,0.000,2.993,0.000,11.666,0.000,0.000,24.520
13607,4.187,0.000,2.993,0.000,11.666,0.000,0.000,24.503
13631,4.187,0.000,2.993,0.000,11.666,0.000,0.000,24.498
13655,4.186,0.000,2.993,0.000,11.666,0.000,0.000,24.490
13679,4.186,0.000,2.993,0.000,11.666,0.000,0.000,24.490
13703,4.186,0.000,2.993,0.000,11.666,0.000,0.000,24.499
13727,4.186,0.000,2.993,0.000,11.666,0.000,0.000,24.462
13751,4.186,0.000,2.993,0.000,11.666,0.000,0.000,24.490
13775,4.186,0.000,2.993,0.000,11.666,0.000,0.000,24.486
13799,4.186,0.000,2.993,0.000,11.666,0.000,0.000,24.458
13823,4.186,0.000,2.993,0.000,11.666,0.000,0.000,24.460
13847,4.185,0.000,2.993,0.000,11.666,0.000,0.000,24.476
13871,4.185,0.000,2.993,0.000,11.666,0.000,0.000,24.424
13895,4.185,0.000,2.993,0.000,11.666,0.000,0.000,24.472
13919,4.185,0.000,2.993,0.000,11.666,0.000,0.000,24.460
13943,4.185,0.000,2.993,0.000,11.666,0.000,0.000,24.417
13967,4.185,0.000,2.993,0.000,11.666,0.000,0.000,24.484
13991,4.185,0.000,2.993,0.000,11.666,0.000,0.000,24.425
14015,4.185,0.000,2.993,0.000,11.666,0.000,0.000,24.410
14039,4.185,0.000,2.993,0.000,11.666,0.000,0.000,24.393
14063,4.185,0.000,2.993,0.000,11.666,0.000,0.000,24.425
14087,4.184,0.000,2.993,0.000,11.666,0.000,0.000,24.387
14111,4.184,0.000,2.993,0.000,11.666,0.000,0.000,24.416
14135,4.184,0.000,2.993,0.000,11.666,0.000,0.000,24.423
14159,4.184,0.000,2.993,0.000,11.666,0.000,0.000,24.392
14183,4.184,0.000,2.993,0.000,11.666,0.000,0.000,24.415
14207,4.184,0.000,2.993,0.000,11.666,0.000,0.000,24.402
14231,4.184,0.000,2.993,0.000,11.666,0.000,0.000,24.430
14255,4.184,0.000,2.993,0.000,11.666,0.000,0.000,24.396
14279,4.184,0.000,2.993,0.000,11.666,0.000,0.000,24.406
14303,4.184,0.000,2.993,0.000,11.666,0.000,0.000,24.430
14327,4.184,0.000,2.993,0.000,11.666,0.000,0.000,24.400
14351,4.183,0.000,2.993,0.000,11.666,0.000,0.000,24.432
14375,4.183,0.000,2.993,0.000,11.666,0.000,0.000,24.372
14399,4.183,0.000,2.993,0.000,11.666,0.000,0.000,24.439
14423,4.183,0.000,2.993,0.000,11.666,0.000,0.000,24.423
14447,4.183,0.000,2.993,0.000,11.666,0.000,0.000,24.382
14471,4.183,0.000,2.993,0.000,11.666,0.000,0.000,24.383
14495,4.183,0.000,2.993,0.000,11.666,0.000,0.000,24.393
14519,4.183,0.000,2.993,0.000,11.666,0.000,0.000,24.407
14543,4.183,0.000,2.993,0.000,11.666,0.000,0.000,24.375
14567,4.183,0.000,2.993,0.000,11.666,0.000,0.000,24.374
14591,4.183,0.000,2.993,0.000,11.666,0.000,0.000,24.372
14615,4.183,0.000,2.993,0.000,11.666,0.000,0.000,24.384
14639,4.183,0.000,2.993,0.000,11.666,0.000,0.000,24.383
14663,4.183,0.000,2.993,0.000,11.666,0.000,0.000,24.366
14687,4.182,0.000,2.993,0.000,11.666,0.000,0.000,24.376
14711,4.182,0.000,2.993,0.000,11.666,0.000,0.000,24.398
14735,4.182,0.000,2.993,0.000,11.666,0.000,0.000,24.396
14759,4.182,0.000,2.993,0.000,11.666,0.000,0.000,24.350
14783,4.182,0.000,2.993,0.000,11.666,0.000,0.000,24.361
14807,4.182,0.000,2.993,0.000,11.666,0.000,0.000,24.399
14831,4.182,0.000,2.993,0.000,11.666,0.000,0.000,24.359
14855,4.182,0.000,2.993,0.000,11.666,0.000,0.000,24.354
14879,4.182,0.000,2.993,0.000,11.666,0.000,0.000,24.367
14903,4.182,0.000,2.993,0.000,11.666,0.000,0.000,24.341
14927,4.182,0.000,2.993,0.000,11.666,0.000,0.000,24.360
14951,4.182,0.000,2.993,0.000,11.666,0.000,0.000,24.359
14975,4.182,0.000,2.993,0.000,11.666,0.000,0.000,24.369
14999,4.182,0.000,2.993,0.000,11.666,0.000,0.000,24.408
15023,4.182,0.000,2.993,0.000,11.666,0.000,0.000,24.358
15047,4.182,0.000,2.993,0.000,11.666,0.000,0.000,24.336
15071,4.182,0.000,2.993,0.000,11.666,0.000,0.000,24.384
15095,4.182,0.000,2.993,0.000,11.666,0.000,0.000,24.376
15119,4.181,0.000,2.993,0.000,11.666,0.000,0.000,24.350
15143,4.181,0.000,2.993,0.000,11.666,0.000,0.000,24.354
15167,4.181,0.000,2.993,0.000,11.666,0.000,0.000,24.306
15191,4.182,0.000,2.993,0.000,11.666,0.000,0.000,24.396
15215,4.181,0.000,2.993,0.000,11.666,0.000,0.000,24.376
15239,4.181,0.000,2.993,0.000,11.666,0.000,0.000,24.338
15263,4.181,0.000,2.993,0.000,11.666,0.000,0.000,24.411
15287,4.181,0.000,2.993,0.000,11.666,0.000,0.000,24.387
15311,4.181,0.000,2.993,0.000,11.666,0.000,0.000,24.387
15335,4.181,0.000,2.993,0.000,11.666,0.000,0.000,24.350
15359,4.181,0.000,2.993,0.000,11.666,0.000,0.000,24.408
15383,4.181,0.000,2.993,0.000,11.666,0.000,0.000,24.351
15407,4.181,0.000,2.993,0.000,11.666,0.000,0.000,24.375
15431,4.181,0.000,2.993,0.000,11.666,0.000,0.000,24.335
15455,4.181,0.000,2.993,0.000,11.666,0.000,0.000,24.335
15479,4.181,0.000,2.993,0.000,11.666,0.000,0.000,24.325
15503,4.181,0.000,2.993,0.000,11.666,0.000,0.000,24.397
15527,4.181,0.000,2.993,0.000,11.666,0.000,0.000,24.371
15551,4.181,0.000,2.993,0.000,11.666,0.000,0.000,24.381
15575,4.181,0.000,2.993,0.000,11.666,0.000,0.000,24.353
15599,4.181,0.000,2.993,0.000,11.666,0.000,0.000,24.339
15623,4.181,0.000,2.993,0.000,11.666,0.000,0.000,24.372
15647,4.180,0.000,2.993,0.000,11.666,0.000,0.000,24.389
15671,4.181,0.000,2.993,0.000,11.666,0.000,0.000,24.344
15695,4.180,0.000,2.993,0.000,11.666,0.000,0.000,24.393
15719,4.180,0.000,2.993,0.000,11.666,0.000,0.000,24.340
15743,4.180,0.000,2.993,0.000,11.666,0.000,0.000,24.354
15767,4.180,0.000,2.993,0.000,11.666,0.000,0.000,24.320
15791,4.180,0.000,2.993,0.000,11.666,0.000,0.000,24.393
15815,4.180,0.000,2.993,0.000,11.666,0.000,0.000,24.353
15839,4.180,0.000,2.993,0.000,11.666,0.000,0.000,24.362
15863,4.180,0.000,2.993,0.000,11.666,0.000,0.000,24.354
15887,4.180,0.000,2.993,0.000,11.666,0.000,0.000,24.382
15911,4.180,0.000,2.993,0.000,11.666,0.000,0.000,24.383
15935,4.180,0.000,2.993,0.000,11.666,0.000,0.000,24.369
15959,4.180,0.000,2.993,0.000,11.666,0.000,0.000,24.386
15983,4.180,0.000,2.993,0.000,11.666,0.000,0.000,24.383
16007,4.180,0.000,2.993,0.000,11.666,0.000,0.000,24.371
16031,4.180,0.000,2.993,0.000,11.666,0.000,0.000,24.351
16055,4.180,0.000,2.993,0.000,11.666,0.000,0.000,24.352
16079,4.180,0.000,2.993,0.000,11.666,0.000,0.000,24.403
16103,4.180,0.000,2.993,0.000,11.666,0.000,0.000,24.406
16127,4.180,0.000,2.993,0.000,11.666,0.000,0.000,24.370
16151,4.180,0.000,2.993,0.000,11.666,0.000,0.000,24.393
16175,4.180,0.000,2.993,0.000,11.666,0.000,0.000,24.352
16199,4.180,0.000,2.993,0.000,11.666,0.000,0.000,24.365
16223,4.180,0.000,2.993,0.000,11.666,0.000,0.000,24.363
16247,4.180,0.000,2.993,0.000,11.666,0.000,0.000,24.371
16271,4.180,0.000,2.993,0.000,11.666,0.000,0.000,24.393
16295,4.180,0.000,2.993,0.000,11.666,0.000,0.000,24.397
16319,4.180,0.000,2.993,0.000,11.666,0.000,0.000,24.404
16343,4.179,0.000,2.993,0.000,11.666,0.000,0.000,24.350
16367,4.180,0.000,2.993,0.000,11.666,0.000,0.000,24.356
16391,4.180,0.000,2.993,0.000,11.666,0.000,0.000,24.388
16415,4.179,0.000,2.993,0.000,11.666,0.000,0.000,24.343
16439,4.179,0.000,2.993,0.000,11.666,0.000,0.000,24.368
16463,4.179,0.000,2.993,0.000,11.666,0.000,0.000,24.371
16487,4.179,0.000,2.993,0.000,11.666,0.000,0.000,24.347
16511,4.179,0.000,2.993,0.000,11.666,0.000,0.000,24.339
16534,3.543,-9.604,2.993,0.037,11.666,0.134,-0.003,24.792
16558,3.495,-9.602,2.993,0.101,11.666,0.359,-0.002,26.086
16582,3.467,-9.602,2.993,0.165,11.666,0.582,-0.001,27.497
16606,3.445,-9.602,2.993,0.229,11.666,0.803,-0.001,28.836
16630,3.424,-9.601,2.993,0.293,11.666,1.023,-0.001,30.042
16654,3.403,-9.601,2.993,0.357,11.666,1.241,-0.001,31.116
16678,3.380,-9.601,2.993,0.421,11.666,1.458,-0.001,32.032
16702,3.357,-9.600,2.993,0.485,11.666,1.674,-0.001,33.093
16726,3.333,-9.600,2.993,0.549,11.666,1.888,-0.001,33.686
16750,3.308,-9.600,2.993,0.614,11.666,2.101,-0.001,34.515
16774,3.283,-9.600,2.993,0.677,11.666,2.311,-0.001,35.157
16798,3.258,-9.600,2.993,0.741,11.666,2.521,-0.001,35.760
16822,3.232,-9.600,2.993,0.805,11.666,2.728,-0.001,36.263
16846,3.208,-9.600,2.993,0.869,11.666,2.935,-0.001,37.053
16870,3.183,-9.600,2.993,0.933,11.666,3.139,-0.001,37.418
16894,3.160,-9.599,2.993,0.997,11.666,3.342,-0.001,38.024
16918,3.137,-9.599,2.993,1.061,11.666,3.544,-0.001,38.534
16942,3.115,-9.600,2.993,1.125,11.666,3.744,-0.001,39.096
16966,3.093,-9.599,2.993,1.189,11.666,3.942,-0.001,39.526
16990,3.071,-9.599,2.993,1.253,11.666,4.139,-0.001,39.908
17014,3.050,-9.599,2.993,1.317,11.666,4.335,-0.001,40.582
17038,3.029,-9.599,2.993,1.381,11.666,4.530,-0.001,40.929
17062,3.008,-9.600,2.993,1.445,11.666,4.723,-0.001,41.209
17086,2.986,-9.599,2.993,1.509,11.666,4.915,-0.001,41.784
17110,2.964,-9.599,2.993,1.573,11.666,5.105,-0.001,42.225
17134,2.941,-9.600,2.993,1.637,11.666,5.294,-0.001,42.648
17158,2.917,-9.599,2.993,1.701,11.666,5.481,-0.001,43.049
17182,2.892,-9.599,2.993,1.765,11.666,5.667,-0.001,43.497
17206,2.867,-9.598,2.993,1.829,11.666,5.852,-0.001,43.603
17230,2.840,-9.599,2.993,1.893,11.666,6.034,-0.001,44.207
17254,2.812,-9.599,2.993,1.957,11.666,6.215,-0.001,44.601
17278,2.783,-9.599,2.993,2.021,11.666,6.394,-0.001,45.137
17302,2.752,-9.599,2.993,2.085,11.666,6.571,-0.001,45.644
17326,2.719,-9.599,2.993,2.149,11.666,6.746,-0.001,45.907
17350,2.684,-9.598,2.993,2.213,11.666,6.919,-0.002,46.590
17374,2.647,-9.599,2.993,2.277,11.666,7.090,-0.002,47.117
17398,2.607,-9.598,2.993,2.341,11.666,7.258,-0.002,47.741
17422,2.563,-9.599,2.993,2.405,11.666,7.423,-0.002,48.300
17446,2.515,-9.598,2.993,2.469,11.666,7.586,-0.002,48.894
17470,3.353,0.000,2.993,2.488,11.666,7.632,0.005,49.224
17494,3.416,0.000,2.993,2.488,11.666,7.632,0.001,49.148
17518,3.431,0.000,2.993,2.488,11.666,7.632,0.000,48.510
17542,3.436,0.000,2.993,2.488,11.666,7.632,0.000,47.458
17566,3.440,0.000,2.993,2.488,11.666,7.632,0.000,46.019
17590,3.444,0.000,2.993,2.488,11.666,7.632,0.000,44.456
17614,3.449,0.000,2.993,2.488,11.666,7.632,0.000,43.067
17638,3.455,0.000,2.993,2.488,11.666,7.632,0.000,41.566
17662,3.462,0.000,2.993,2.488,11.666,7.632,0.001,40.416
17686,3.468,0.000,2.993,2.488,11.666,7.632,0.000,39.511
17710,3.474,0.000,2.993,2.488,11.666,7.632,0.000,38.177
17734,3.479,0.000,2.993,2.488,11.666,7.632,0.000,37.289
17758,3.483,0.000,2.993,2.488,11.666,7.632,0.000,36.298
17782,3.486,0.000,2.993,2.488,11.666,7.632,0.000,35.540
17806,3.490,0.000,2.993,2.488,11.666,7.632,0.000,34.805
17830,3.492,0.000,2.993,2.488,11.666,7.632,0.000,33.922
17854,3.494,0.000,2.993,2.488,11.666,7.632,0.000,33.350
17878,3.496,0.000,2.993,2.488,11.666,7.632,0.000,32.627
17902,3.497,0.000,2.993,2.488,11.666,7.632,0.000,32.184
17926,3.499,0.000,2.993,2.488,11.666,7.632,0.000,31.667
17950,3.500,0.000,2.993,2.488,11.666,7.632,0.000,31.173
17974,3.501,0.000,2.993,2.488,11.666,7.632,0.000,30.686
17998,3.502,0.000,2.993,2.488,11.666,7.632,0.000,30.255
18022,3.503,0.000,2.993,2.488,11.666,7.632,0.000,29.882
18046,3.504,0.000,2.993,2.488,11.666,7.632,0.000,29.490
18070,3.505,0.000,2.993,2.488,11.666,7.632,0.000,29.251
18094,3.506,0.000,2.993,2.488,11.666,7.632,0.000,28.843
18118,3.507,0.000,2.993,2.488,11.666,7.632,0.000,28.610
18142,3.508,0.000,2.993,2.488,11.666,7.632,0.000,28.331
18166,3.508,0.000,2.993,2.488,11.666,7.632,0.000,28.087
18190,3.508,0.000,2.993,2.488,11.666,7.632,0.000,27.872
18214,3.509,0.000,2.993,2.488,11.666,7.632,0.000,27.659
18238,3.510,0.000,2.993,2.488,11.666,7.632,0.000,27.377
18262,3.510,0.000,2.993,2.488,11.666,7.632,0.000,27.249
18286,3.511,0.000,2.993,2.488,11.666,7.632,0.000,27.109
18310,3.511,0.000,2.993,2.488,11.666,7.632,0.000,26.908
18334,3.511,0.000,2.993,2.488,11.666,7.632,0.000,26.771
18358,3.512,0.000,2.993,2.488,11.666,7.632,0.000,26.582
18382,3.512,0.000,2.993,2.488,11.666,7.632,0.000,26.486
18406,3.512,0.000,2.993,2.488,11.666,7.632,0.000,26.351
18430,3.513,0.000,2.993,2.488,11.666,7.632,0.000,26.221
18454,3.513,0.000,2.993,2.488,11.666,7.632,0.000,26.107
18478,3.513,0.000,2.993,2.488,11.666,7.632,0.000,25.990
18502,3.513,0.000,2.993,2.488,11.666,7.632,0.000,25.943
18526,3.514,0.000,2.993,2.488,11.666,7.632,0.000,25.804
18550,3.514,0.000,2.993,2.488,11.666,7.632,0.000,25.729
18574,3.514,0.000,2.993,2.488,11.666,7.632,0.000,25.701
18598,3.515,0.000,2.993,2.488,11.666,7.632,0.000,25.519
18622,3.515,0.000,2.993,2.488,11.666,7.632,0.000,25.534
18646,3.515,0.000,2.993,2.488,11.666,7.632,0.000,25.507
18670,3.515,0.000,2.993,2.488,11.666,7.632,0.000,25.397
18694,3.516,0.000,2.993,2.488,11.666,7.632,0.000,25.330
18718,3.516,0.000,2.993,2.488,11.666,7.632,0.000,25.254
18742,3.516,0.000,2.993,2.488,11.666,7.632,0.000,25.227
18766,3.516,0.000,2.993,2.488,11.666,7.632,0.000,25.135
18790,3.516,0.000,2.993,2.488,11.666,7.632,0.000,25.156
18814,3.516,0.000,2.993,2.488,11.666,7.632,0.000,25.093
18838,3.516,0.000,2.993,2.488,11.666,7.632,0.000,25.056
18862,3.517,0.000,2.993,2.488,11.666,7.632,0.000,25.036
18886,3.517,0.000,2.993,2.488,11.666,7.632,0.000,24.960
18910,3.517,0.000,2.993,2.488,11.666,7.632,0.000,25.004
18934,3.517,0.000,2.993,2.488,11.666,7.632,0.000,24.905
18958,3.517,0.000,2.993,2.488,11.666,7.632,0.000,24.867
18982,3.517,0.000,2.993,2.488,11.666,7.632,0.000,24.853
19006,3.517,0.000,2.993,2.488,11.666,7.632,0.000,24.833
19030,3.517,0.000,2.993,2.488,11.666,7.632,0.000,24.817
19054,3.517,0.000,2.993,2.488,11.666,7.632,0.000,24.770
19078,3.518,0.000,2.993,2.488,11.666,7.632,0.000,24.741
19102,3.518,0.000,2.993,2.488,11.666,7.632,0.000,24.786
19126,3.518,0.000,2.993,2.488,11.666,7.632,0.000,24.724
19150,3.518,0.000,2.993,2.488,11.666,7.632,0.000,24.664
19174,3.518,0.000,2.993,2.488,11.666,7.632,0.000,24.645
19198,3.518,0.000,2.993,2.488,11.666,7.632,0.000,24.630
19222,3.518,0.000,2.993,2.488,11.666,7.632,0.000,24.634
19246,3.518,0.000,2.993,2.488,11.666,7.632,0.000,24.613
19270,3.518,0.000,2.993,2.488,11.666,7.632,0.000,24.648
19294,3.519,0.000,2.993,2.488,11.666,7.632,0.000,24.619
19318,3.519,0.000,2.993,2.488,11.666,7.632,0.000,24.610
19342,3.519,0.000,2.993,2.488,11.666,7.632,0.000,24.607
19366,3.519,0.000,2.993,2.488,11.666,7.632,0.000,24.586
19390,3.519,0.000,2.993,2.488,11.666,7.632,0.000,24.577
19414,3.519,0.000,2.993,2.488,11.666,7.632,0.000,24.552
19438,3.519,0.000,2.993,2.488,11.666,7.632,0.000,24.569
19462,3.519,0.000,2.993,2.488,11.666,7.632,0.000,24.500
19486,3.519,0.000,2.993,2.488,11.666,7.632,0.000,24.511
19510,3.519,0.000,2.993,2.488,11.666,7.632,0.000,24.514
19534,3.519,0.000,2.993,2.488,11.666,7.632,0.000,24.492
19558,3.519,0.000,2.993,2.488,11.666,7.632,0.000,24.494
19582,3.520,0.000,2.993,2.488,11.666,7.632,0.000,24.493
19606,3.519,0.000,2.993,2.488,11.666,7.632,0.000,24.513
19630,3.519,0.000,2.993,2.488,11.666,7.632,0.000,24.499
19654,3.520,0.000,2.993,2.488,11.666,7.632,0.000,24.477
19678,3.520,0.000,2.993,2.488,11.666,7.632,0.000,24.468
19702,3.520,0.000,2.993,2.488,11.666,7.632,0.000,24.495
19726,3.520,0.000,2.993,2.488,11.666,7.632,0.000,24.504
19750,3.520,0.000,2.993,2.488,11.666,7.632,0.000,24.517
19774,3.520,0.000,2.993,2.488,11.666,7.632,0.000,24.478
19798,3.520,0.000,2.993,2.488,11.666,7.632,0.000,24.443
19822,3.520,0.000,2.993,2.488,11.666,7.632,0.000,24.466
19846,3.520,0.000,2.993,2.488,11.666,7.632,0.000,24.465
19870,3.520,0.000,2.993,2.488,11.666,7.632,0.000,24.429
19894,3.520,0.000,2.993,2.488,11.666,7.632,0.000,24.476
19918,3.520,0.000,2.993,2.488,11.666,7.632,0.000,24.430
19942,3.520,0.000,2.993,2.488,11.666,7.632,0.000,24.416
19966,3.520,0.000,2.993,2.488,11.666,7.632,0.000,24.455
19990,3.520,0.000,2.993,2.488,11.666,7.632,0.000,24.450
20014,3.520,0.000,2.993,2.488,11.666,7.632,0.000,24.449
20038,3.520,0.000,2.993,2.488,11.666,7.632,0.000,24.437
20062,3.520,0.000,2.993,2.488,11.666,7.632,0.000,24.440
20086,3.521,0.000,2.993,2.488,11.666,7.632,0.000,24.464
20110,3.521,0.000,2.993,2.488,11.666,7.632,0.000,24.428
20134,3.521,0.000,2.993,2.488,11.666,7.632,0.000,24.425
20158,3.521,0.000,2.993,2.488,11.666,7.632,0.000,24.425
20182,3.521,0.000,2.993,2.488,11.666,7.632,0.000,24.410
20206,3.521,0.000,2.993,2.488,11.666,7.632,0.000,24.417
20230,3.521,0.000,2.993,2.488,11.666,7.632,0.000,24.381
20254,3.521,0.000,2.993,2.488,11.666,7.632,0.000,24.400
20278,3.521,0.000,2.993,2.488,11.666,7.632,0.000,24.385
20302,3.521,0.000,2.993,2.488,11.666,7.632,0.000,24.414
20326,3.521,0.000,2.993,2.488,11.666,7.632,0.000,24.382
20350,3.521,0.000,2.993,2.488,11.666,7.632,0.000,24.378
20374,3.521,0.000,2.993,2.488,11.666,7.632,0.000,24.376
20398,3.521,0.000,2.993,2.488,11.666,7.632,0.000,24.377
20422,3.521,0.000,2.993,2.488,11.666,7.632,0.000,24.389
20446,3.521,0.000,2.993,2.488,11.666,7.632,0.000,24.399
20470,3.521,0.000,2.993,2.488,11.666,7.632,0.000,24.398
20494,3.521,0.000,2.993,2.488,11.666,7.632,0.000,24.375
20518,3.521,0.000,2.993,2.488,11.666,7.632,0.000,24.434
20542,3.521,0.000,2.993,2.488,11.666,7.632,0.000,24.371
20566,3.521,0.000,2.993,2.488,11.666,7.632,0.000,24.416
20590,3.521,0.000,2.993,2.488,11.666,7.632,0.000,24.393
20614,3.521,0.000,2.993,2.488,11.666,7.632,0.000,24.394
20638,3.521,0.000,2.993,2.488,11.666,7.632,0.000,24.395
20662,3.521,0.000,2.993,2.488,11.666,7.632,0.000,24.399
20686,3.521,0.000,2.993,2.488,11.666,7.632,0.000,24.369
20710,3.521,0.000,2.993,2.488,11.666,7.632,0.000,24.434
20734,3.521,0.000,2.993,2.488,11.666,7.632,0.000,24.377
20758,3.521,0.000,2.993,2.488,11.666,7.632,0.000,24.383
20782,3.521,0.000,2.993,2.488,11.666,7.632,0.000,24.373
20806,3.521,0.000,2.993,2.488,11.666,7.632,0.000,24.368
20830,3.521,0.000,2.993,2.488,11.666,7.632,0.000,24.399
20854,3.521,0.000,2.993,2.488,11.666,7.632,0.000,24.412
20878,3.522,0.000,2.993,2.488,11.666,7.632,0.000,24.429
20902,3.522,0.000,2.993,2.488,11.666,7.632,0.000,24.381
20926,3.521,0.000,2.993,2.488,11.666,7.632,0.000,24.359
20950,3.521,0.000,2.993,2.488,11.666,7.632,0.000,24.352
20974,3.522,0.000,2.993,2.488,11.666,7.632,0.000,24.377
20998,3.522,0.000,2.993,2.488,11.666,7.632,0.000,24.358
21022,3.522,0.000,2.993,2.488,11.666,7.632,0.000,24.391
21046,3.522,0.000,2.993,2.488,11.666,7.632,0.000,24.378
21053,3.522,0.000,2.993,2.488,11.666,7.632,0.000,24.363