File: data/T25/3C/3.csv
time_s,voltage_v,current_a,chargecapacity_ah,dischargecapacity_ah,charge_energy_wh,discharge_energy_wh,voltagedot_v_per_s,temp_degc
1,3.342,0.000,0.000,0.000,0.000,0.000,0.000,24.674
21,3.342,0.000,0.000,0.000,0.000,0.000,0.000,24.619
41,3.342,0.000,0.000,0.000,0.000,0.000,0.000,24.657
61,3.342,0.000,0.000,0.000,0.000,0.000,0.000,24.623
81,3.342,0.000,0.000,0.000,0.000,0.000,0.000,24.619
101,3.342,0.000,0.000,0.000,0.000,0.000,0.000,24.639
121,3.342,0.000,0.000,0.000,0.000,0.000,0.000,24.677
141,3.342,0.000,0.000,0.000,0.000,0.000,0.000,24.654
161,3.342,0.000,0.000,0.000,0.000,0.000,0.000,24.618
181,3.342,0.000,0.000,0.000,0.000,0.000,0.000,24.648
201,3.342,0.000,0.000,0.000,0.000,0.000,0.000,24.604
221,3.342,0.000,0.000,0.000,0.000,0.000,0.000,24.642
241,3.342,0.000,0.000,0.000,0.000,0.000,0.000,24.654
261,3.342,0.000,0.000,0.000,0.000,0.000,0.000,24.687
281,3.342,0.000,0.000,0.000,0.000,0.000,0.000,24.634
301,3.342,0.000,0.000,0.000,0.000,0.000,0.000,24.655
321,3.342,0.000,0.000,0.000,0.000,0.000,0.000,24.660
341,3.342,0.000,0.000,0.000,0.000,0.000,0.000,24.671
361,3.342,0.000,0.000,0.000,0.000,0.000,0.000,24.660
381,3.342,0.000,0.000,0.000,0.000,0.000,0.000,24.696
401,3.342,0.000,0.000,0.000,0.000,0.000,0.000,24.655
421,3.342,0.000,0.000,0.000,0.000,0.000,0.000,24.657
441,3.342,0.000,0.000,0.000,0.000,0.000,0.000,24.662
461,3.342,0.000,0.000,0.000,0.000,0.000,0.000,24.680
481,3.342,0.000,0.000,0.000,0.000,0.000,0.000,24.640
501,3.342,0.000,0.000,0.000,0.000,0.000,0.000,24.648
521,3.342,0.000,0.000,0.000,0.000,0.000,0.000,24.696
541,3.342,0.000,0.000,0.000,0.000,0.000,0.000,24.660
561,3.342,0.000,0.000,0.000,0.000,0.000,0.000,24.666
581,3.342,0.000,0.000,0.000,0.000,0.000,0.000,24.653
601,3.342,0.000,0.000,0.000,0.000,0.000,0.000,24.657
621,3.342,0.000,0.000,0.000,0.000,0.000,0.000,24.686
641,3.342,0.000,0.000,0.000,0.000,0.000,0.000,24.629
661,3.342,0.000,0.000,0.000,0.000,0.000,0.000,24.710
681,3.342,0.000,0.000,0.000,0.000,0.000,0.000,24.665
701,3.342,0.000,0.000,0.000,0.000,0.000,0.000,24.656
721,3.342,0.000,0.000,0.000,0.000,0.000,0.000,24.679
741,3.342,0.000,0.000,0.000,0.000,0.000,0.000,24.669
761,3.342,0.000,0.000,0.000,0.000,0.000,0.000,24.668
781,3.342,0.000,0.000,0.000,0.000,0.000,0.000,24.674
801,3.342,0.000,0.000,0.000,0.000,0.000,0.000,24.677
821,3.342,0.000,0.000,0.000,0.000,0.000,0.000,24.670
841,3.342,0.000,0.000,0.000,0.000,0.000,0.000,24.637
861,3.342,0.000,0.000,0.000,0.000,0.000,0.000,24.678
881,3.342,0.000,0.000,0.000,0.000,0.000,0.000,24.635
901,3.342,0.000,0.000,0.000,0.000,0.000,0.000,24.644
921,3.342,0.000,0.000,0.000,0.000,0.000,0.000,24.615
941,3.342,0.000,0.000,0.000,0.000,0.000,0.000,24.683
961,3.342,0.000,0.000,0.000,0.000,0.000,0.000,24.662
981,3.342,0.000,0.000,0.000,0.000,0.000,0.000,24.682
1001,3.342,0.000,0.000,0.000,0.000,0.000,0.000,24.637
1021,3.342,0.000,0.000,0.000,0.000,0.000,0.000,24.638
1041,3.342,0.000,0.000,0.000,0.000,0.000,0.000,24.672
1061,3.342,0.000,0.000,0.000,0.000,0.000,0.000,24.675
1081,3.342,0.000,0.000,0.000,0.000,0.000,0.000,24.707
1101,3.342,0.000,0.000,0.000,0.000,0.000,0.000,24.676
1121,3.342,0.000,0.000,0.000,0.000,0.000,0.000,24.638
1141,3.342,0.000,0.000,0.000,0.000,0.000,0.000,24.666
1161,3.342,0.000,0.000,0.000,0.000,0.000,0.000,24.660
1181,3.342,0.000,0.000,0.000,0.000,0.000,0.000,24.690
1201,3.342,0.000,0.000,0.000,0.000,0.000,0.000,24.681
1221,3.342,0.000,0.000,0.000,0.000,0.000,0.000,24.640
1241,3.342,0.000,0.000,0.000,0.000,0.000,0.000,24.685
1261,3.342,0.000,0.000,0.000,0.000,0.000,0.000,24.670
1281,3.342,0.000,0.000,0.000,0.000,0.000,0.000,24.658
1301,3.342,0.000,0.000,0.000,0.000,0.000,0.000,24.703
1321,3.342,0.000,0.000,0.000,0.000,0.000,0.000,24.641
1341,3.342,0.000,0.000,0.000,0.000,0.000,0.000,24.651
1361,3.342,0.000,0.000,0.000,0.000,0.000,0.000,24.696
1381,3.342,0.000,0.000,0.000,0.000,0.000,0.000,24.690
1401,3.342,0.000,0.000,0.000,0.000,0.000,0.000,24.723
1421,3.342,0.000,0.000,0.000,0.000,0.000,0.000,24.776
1441,3.342,0.000,0.000,0.000,0.000,0.000,0.000,24.775
1461,3.342,0.000,0.000,0.000,0.000,0.000,0.000,24.777
1481,3.342,0.000,0.000,0.000,0.000,0.000,0.000,24.736
1501,3.342,0.000,0.000,0.000,0.000,0.000,0.000,24.665
1521,3.342,0.000,0.000,0.000,0.000,0.000,0.000,24.692
1541,3.342,0.000,0.000,0.000,0.000,0.000,0.000,24.699
1561,3.342,0.000,0.000,0.000,0.000,0.000,0.000,24.664
1581,3.342,0.000,0.000,0.000,0.000,0.000,0.000,24.756
1601,3.342,0.000,0.000,0.000,0.000,0.000,0.000,24.856
1621,3.342,0.000,0.000,0.000,0.000,0.000,0.000,24.928
1641,3.342,0.000,0.000,0.000,0.000,0.000,0.000,25.043
1661,3.342,0.000,0.000,0.000,0.000,0.000,0.000,25.164
1681,3.342,0.000,0.000,0.000,0.000,0.000,0.000,25.151
1701,3.342,0.000,0.000,0.000,0.000,0.000,0.000,25.140
1721,3.342,0.000,0.000,0.000,0.000,0.000,0.000,25.022
1741,3.342,0.000,0.000,0.000,0.000,0.000,0.000,25.014
1761,3.342,0.000,0.000,0.000,0.000,0.000,0.000,24.933
1781,3.342,0.000,0.000,0.000,0.000,0.000,0.000,24.917
1801,3.342,0.000,0.000,0.000,0.000,0.000,0.000,24.872
1821,3.342,0.000,0.000,0.000,0.000,0.000,0.000,24.895
1841,3.342,0.000,0.000,0.000,0.000,0.000,0.000,24.896
1861,3.342,0.000,0.000,0.000,0.000,0.000,0.000,24.871
1881,3.342,0.000,0.000,0.000,0.000,0.000,0.000,24.889
1901,3.342,0.000,0.000,0.000,0.000,0.000,0.000,24.911
1921,3.342,0.000,0.000,0.000,0.000,0.000,0.000,24.874
1941,3.342,0.000,0.000,0.000,0.000,0.000,0.000,24.838
1961,3.342,0.000,0.000,0.000,0.000,0.000,0.000,24.851
1981,3.342,0.000,0.000,0.000,0.000,0.000,0.000,24.851
2001,3.342,0.000,0.000,0.000,0.000,0.000,0.000,24.877
2021,3.342,0.000,0.000,0.000,0.000,0.000,0.000,24.834
2041,3.342,0.000,0.000,0.000,0.000,0.000,0.000,24.841
2061,3.342,0.000,0.000,0.000,0.000,0.000,0.000,24.863
2081,3.342,0.000,0.000,0.000,0.000,0.000,0.000,24.879
2101,3.342,0.000,0.000,0.000,0.000,0.000,0.000,24.843
2121,3.342,0.000,0.000,0.000,0.000,0.000,0.000,24.866
2141,3.342,0.000,0.000,0.000,0.000,0.000,0.000,24.872
2161,3.342,0.000,0.000,0.000,0.000,0.000,0.000,24.899
2181,3.342,0.000,0.000,0.000,0.000,0.000,0.000,24.875
2201,3.342,0.000,0.000,0.000,0.000,0.000,0.000,24.907
2221,3.342,0.000,0.000,0.000,0.000,0.000,0.000,24.883
2241,3.342,0.000,0.000,0.000,0.000,0.000,0.000,24.935
2261,3.342,0.000,0.000,0.000,0.000,0.000,0.000,24.885
2281,3.342,0.000,0.000,0.000,0.000,0.000,0.000,24.897
2301,3.342,0.000,0.000,0.000,0.000,0.000,0.000,24.901
2321,3.342,0.000,0.000,0.000,0.000,0.000,0.000,24.955
2341,3.342,0.000,0.000,0.000,0.000,0.000,0.000,24.969
2361,3.342,0.000,0.000,0.000,0.000,0.000,0.000,24.910
2381,3.342,0.000,0.000,0.000,0.000,0.000,0.000,24.949
2401,3.342,0.000,0.000,0.000,0.000,0.000,0.000,24.952
2421,3.342,0.000,0.000,0.000,0.000,0.000,0.000,24.938
2441,3.342,0.000,0.000,0.000,0.000,0.000,0.000,24.962
2461,3.342,0.000,0.000,0.000,0.000,0.000,0.000,24.987
2481,3.342,0.000,0.000,0.000,0.000,0.000,0.000,24.966
2501,3.342,0.000,0.000,0.000,0.000,0.000,0.000,24.967
2521,3.342,0.000,0.000,0.000,0.000,0.000,0.000,25.008
2541,3.342,0.000,0.000,0.000,0.000,0.000,0.000,25.014
2561,3.342,0.000,0.000,0.000,0.000,0.000,0.000,25.008
2581,3.342,0.000,0.000,0.000,0.000,0.000,0.000,25.001
2601,3.342,0.000,0.000,0.000,0.000,0.000,0.000,24.970
2621,3.342,0.000,0.000,0.000,0.000,0.000,0.000,24.995
2641,3.342,0.000,0.000,0.000,0.000,0.000,0.000,25.016
2661,3.342,0.000,0.000,0.000,0.000,0.000,0.000,25.018
2681,3.342,0.000,0.000,0.000,0.000,0.000,0.000,25.018
2701,3.342,0.000,0.000,0.000,0.000,0.000,0.000,25.043
2721,3.342,0.000,0.000,0.000,0.000,0.000,0.000,25.016
2741,3.342,0.000,0.000,0.000,0.000,0.000,0.000,25.002
2761,3.342,0.000,0.000,0.000,0.000,0.000,0.000,25.039
2781,3.342,0.000,0.000,0.000,0.000,0.000,0.000,25.064
2801,3.342,0.000,0.000,0.000,0.000,0.000,0.000,25.030
2821,3.342,0.000,0.000,0.000,0.000,0.000,0.000,25.032
2841,3.342,0.000,0.000,0.000,0.000,0.000,0.000,25.027
2861,3.342,0.000,0.000,0.000,0.000,0.000,0.000,25.046
2881,3.342,0.000,0.000,0.000,0.000,0.000,0.000,25.019
2901,3.342,0.000,0.000,0.000,0.000,0.000,0.000,25.080
2921,3.342,0.000,0.000,0.000,0.000,0.000,0.000,25.049
2941,3.342,0.000,0.000,0.000,0.000,0.000,0.000,25.052
2961,3.342,0.000,0.000,0.000,0.000,0.000,0.000,25.039
2981,3.342,0.000,0.000,0.000,0.000,0.000,0.000,25.037
3001,3.342,0.000,0.000,0.000,0.000,0.000,0.000,25.074
3021,3.342,0.000,0.000,0.000,0.000,0.000,0.000,25.049
3041,3.342,0.000,0.000,0.000,0.000,0.000,0.000,25.046
3061,3.342,0.000,0.000,0.000,0.000,0.000,0.000,25.065
3081,3.342,0.000,0.000,0.000,0.000,0.000,0.000,25.066
3101,3.342,0.000,0.000,0.000,0.000,0.000,0.000,25.060
3121,3.342,0.000,0.000,0.000,0.000,0.000,0.000,25.034
3141,3.342,0.000,0.000,0.000,0.000,0.000,0.000,25.098
3161,3.342,0.000,0.000,0.000,0.000,0.000,0.000,25.094
3181,3.342,0.000,0.000,0.000,0.000,0.000,0.000,25.062
3201,3.342,0.000,0.000,0.000,0.000,0.000,0.000,25.071
3221,3.342,0.000,0.000,0.000,0.000,0.000,0.000,25.034
3241,3.342,0.000,0.000,0.000,0.000,0.000,0.000,25.081
3261,3.342,0.000,0.000,0.000,0.000,0.000,0.000,25.038
3281,3.342,0.000,0.000,0.000,0.000,0.000,0.000,25.017
3301,3.342,0.000,0.000,0.000,0.000,0.000,0.000,25.041
3321,3.342,0.000,0.000,0.000,0.000,0.000,0.000,25.020
3341,3.342,0.000,0.000,0.000,0.000,0.000,0.000,25.077
3361,3.342,0.000,0.000,0.000,0.000,0.000,0.000,25.046
3381,3.342,0.000,0.000,0.000,0.000,0.000,0.000,25.060
3401,3.342,0.000,0.000,0.000,0.000,0.000,0.000,25.002
3421,3.342,0.000,0.000,0.000,0.000,0.000,0.000,25.039
3441,3.342,0.000,0.000,0.000,0.000,0.000,0.000,25.028
3461,3.342,0.000,0.000,0.000,0.000,0.000,0.000,25.066
3481,3.342,0.000,0.000,0.000,0.000,0.000,0.000,25.029
3501,3.342,0.000,0.000,0.000,0.000,0.000,0.000,25.047
3521,3.342,0.000,0.000,0.000,0.000,0.000,0.000,25.032
3541,3.342,0.000,0.000,0.000,0.000,0.000,0.000,25.029
3561,3.342,0.000,0.000,0.000,0.000,0.000,0.000,25.061
3581,3.342,0.000,0.000,0.000,0.000,0.000,0.000,25.029
3600,3.342,0.000,0.000,0.000,0.000,0.000,0.000,24.991
3620,3.515,1.625,0.009,0.000,0.032,0.000,0.001,25.071
3640,3.524,1.625,0.018,0.000,0.063,0.000,0.000,25.163
3660,3.530,1.625,0.027,0.000,0.095,0.000,0.000,25.212
3680,3.535,1.625,0.036,0.000,0.127,0.000,0.000,25.336
3700,3.539,1.625,0.045,0.000,0.159,0.000,0.000,25.392
3720,3.542,1.625,0.054,0.000,0.191,0.000,0.000,25.479
3740,3.546,1.625,0.063,0.000,0.223,0.000,0.000,25.521
3760,3.550,1.625,0.072,0.000,0.255,0.000,0.000,25.559
3780,3.553,1.625,0.081,0.000,0.287,0.000,0.000,25.658
3800,3.557,1.625,0.090,0.000,0.319,0.000,0.000,25.688
3820,3.560,1.625,0.099,0.000,0.351,0.000,0.000,25.706
3840,3.564,1.625,0.108,0.000,0.384,0.000,0.000,25.785
3860,3.567,1.625,0.117,0.000,0.416,0.000,0.000,25.778
3880,3.571,1.625,0.126,0.000,0.448,0.000,0.000,25.845
3900,3.574,1.625,0.135,0.000,0.480,0.000,0.000,25.872
3920,3.577,1.625,0.144,0.000,0.513,0.000,0.000,25.909
3940,3.580,1.625,0.153,0.000,0.545,0.000,0.000,25.932
3960,3.584,1.625,0.163,0.000,0.577,0.000,0.000,25.950
3980,3.587,1.625,0.172,0.000,0.610,0.000,0.000,25.955
4000,3.590,1.625,0.181,0.000,0.642,0.000,0.000,25.984
4020,3.593,1.625,0.190,0.000,0.674,0.000,0.000,25.982
4040,3.596,1.625,0.199,0.000,0.707,0.000,0.000,26.034
4060,3.599,1.625,0.208,0.000,0.739,0.000,0.000,26.051
4080,3.602,1.625,0.217,0.000,0.772,0.000,0.000,26.038
4100,3.605,1.625,0.226,0.000,0.804,0.000,0.000,26.055
4120,3.608,1.625,0.235,0.000,0.837,0.000,0.000,26.132
4140,3.611,1.625,0.244,0.000,0.870,0.000,0.000,26.059
4160,3.614,1.625,0.253,0.000,0.902,0.000,0.000,26.029
4180,3.616,1.625,0.262,0.000,0.935,0.000,0.000,26.124
4200,3.619,1.625,0.271,0.000,0.967,0.000,0.000,26.085
4220,3.622,1.625,0.280,0.000,1.000,0.000,0.000,26.068
4240,3.624,1.625,0.289,0.000,1.033,0.000,0.000,26.036
4260,3.627,1.625,0.298,0.000,1.066,0.000,0.000,26.081
4280,3.629,1.625,0.307,0.000,1.098,0.000,0.000,26.112
4300,3.631,1.625,0.316,0.000,1.131,0.000,0.000,26.106
4320,3.633,1.625,0.325,0.000,1.164,0.000,0.000,26.087
4340,3.635,1.625,0.334,0.000,1.197,0.000,0.000,26.112
4360,3.637,1.625,0.343,0.000,1.230,0.000,0.000,26.084
4380,3.639,1.625,0.352,0.000,1.262,0.000,0.000,26.058
4400,3.641,1.625,0.361,0.000,1.295,0.000,0.000,26.067
4420,3.643,1.625,0.370,0.000,1.328,0.000,0.000,26.105
4440,3.644,1.625,0.379,0.000,1.361,0.000,0.000,26.066
4460,3.646,1.625,0.388,0.000,1.394,0.000,0.000,26.099
4480,3.648,1.625,0.397,0.000,1.427,0.000,0.000,26.097
4500,3.649,1.625,0.406,0.000,1.460,0.000,0.000,26.026
4520,3.651,1.625,0.415,0.000,1.493,0.000,0.000,26.072
4540,3.653,1.625,0.424,0.000,1.526,0.000,0.000,26.090
4560,3.654,1.625,0.433,0.000,1.559,0.000,0.000,26.077
4580,3.656,1.625,0.442,0.000,1.592,0.000,0.000,26.084
4600,3.657,1.625,0.451,0.000,1.625,0.000,0.000,26.072
4620,3.659,1.625,0.460,0.000,1.658,0.000,0.000,26.093
4640,3.661,1.625,0.470,0.000,1.691,0.000,0.000,26.072
4660,3.663,1.625,0.479,0.000,1.724,0.000,0.000,26.069
4680,3.664,1.625,0.488,0.000,1.757,0.000,0.000,26.099
4700,3.666,1.625,0.497,0.000,1.790,0.000,0.000,26.088
4720,3.667,1.625,0.506,0.000,1.823,0.000,0.000,26.085
4740,3.669,1.625,0.515,0.000,1.856,0.000,0.000,26.107
4760,3.671,1.625,0.524,0.000,1.889,0.000,0.000,26.112
4780,3.673,1.625,0.533,0.000,1.923,0.000,0.000,26.075
4800,3.674,1.625,0.542,0.000,1.956,0.000,0.000,26.054
4820,3.676,1.625,0.551,0.000,1.989,0.000,0.000,26.142
4840,3.678,1.625,0.560,0.000,2.022,0.000,0.000,26.035
4860,3.679,1.625,0.569,0.000,2.055,0.000,0.000,26.045
4880,3.681,1.625,0.578,0.000,2.089,0.000,0.000,26.076
4900,3.683,1.625,0.587,0.000,2.122,0.000,0.000,26.070
4920,3.685,1.625,0.596,0.000,2.155,0.000,0.000,26.102
4940,3.686,1.625,0.605,0.000,2.188,0.000,0.000,26.073
4960,3.688,1.625,0.614,0.000,2.222,0.000,0.000,26.116
4980,3.690,1.625,0.623,0.000,2.255,0.000,0.000,26.067
5000,3.692,1.625,0.632,0.000,2.288,0.000,0.000,26.108
5020,3.694,1.625,0.641,0.000,2.322,0.000,0.000,26.068
5040,3.696,1.625,0.650,0.000,2.355,0.000,0.000,26.062
5060,3.697,1.625,0.659,0.000,2.388,0.000,0.000,26.088
5080,3.699,1.625,0.668,0.000,2.422,0.000,0.000,26.081
5100,3.701,1.625,0.677,0.000,2.455,0.000,0.000,26.041
5120,3.703,1.625,0.686,0.000,2.489,0.000,0.000,26.074
5140,3.705,1.625,0.695,0.000,2.522,0.000,0.000,26.088
5160,3.707,1.625,0.704,0.000,2.556,0.000,0.000,26.087
5180,3.708,1.625,0.713,0.000,2.589,0.000,0.000,26.063
5200,3.710,1.625,0.722,0.000,2.622,0.000,0.000,26.026
5220,3.712,1.625,0.731,0.000,2.656,0.000,0.000,26.114
5240,3.714,1.625,0.740,0.000,2.690,0.000,0.000,26.077
5260,3.716,1.625,0.749,0.000,2.723,0.000,0.000,26.105
5280,3.717,1.625,0.758,0.000,2.757,0.000,0.000,26.090
5300,3.719,1.625,0.767,0.000,2.790,0.000,0.000,26.019
5320,3.721,1.625,0.777,0.000,2.824,0.000,0.000,26.015
5340,3.723,1.625,0.786,0.000,2.857,0.000,0.000,26.088
5360,3.724,1.625,0.795,0.000,2.891,0.000,0.000,26.091
5380,3.726,1.625,0.804,0.000,2.925,0.000,0.000,26.067
5400,3.728,1.625,0.813,0.000,2.958,0.000,0.000,26.078
5420,3.730,1.625,0.822,0.000,2.992,0.000,0.000,26.043
5440,3.731,1.625,0.831,0.000,3.026,0.000,0.000,26.075
5460,3.733,1.625,0.840,0.000,3.059,0.000,0.000,26.078
5480,3.735,1.625,0.849,0.000,3.093,0.000,0.000,26.130
5500,3.736,1.625,0.858,0.000,3.127,0.000,0.000,26.079
5520,3.738,1.625,0.867,0.000,3.161,0.000,0.000,26.037
5540,3.740,1.625,0.876,0.000,3.194,0.000,0.000,26.080
5560,3.741,1.625,0.885,0.000,3.228,0.000,0.000,26.082
5580,3.743,1.625,0.894,0.000,3.262,0.000,0.000,26.078
5600,3.745,1.625,0.903,0.000,3.296,0.000,0.000,26.108
5620,3.747,1.625,0.912,0.000,3.329,0.000,0.000,26.079
5640,3.748,1.625,0.921,0.000,3.363,0.000,0.000,26.104
5660,3.750,1.625,0.930,0.000,3.397,0.000,0.000,26.141
5680,3.752,1.625,0.939,0.000,3.431,0.000,0.000,26.116
5700,3.753,1.625,0.948,0.000,3.465,0.000,0.000,26.104
5720,3.755,1.625,0.957,0.000,3.499,0.000,0.000,26.101
5740,3.757,1.625,0.966,0.000,3.533,0.000,0.000,26.097
5760,3.758,1.625,0.975,0.000,3.567,0.000,0.000,26.146
5780,3.760,1.625,0.984,0.000,3.601,0.000,0.000,26.120
5800,3.762,1.625,0.993,0.000,3.635,0.000,0.000,26.121
5820,3.763,1.625,1.002,0.000,3.669,0.000,0.000,26.125
5840,3.765,1.625,1.011,0.000,3.702,0.000,0.000,26.103
5860,3.767,1.625,1.020,0.000,3.736,0.000,0.000,26.105
5880,3.768,1.625,1.029,0.000,3.771,0.000,0.000,26.119
5900,3.770,1.625,1.038,0.000,3.805,0.000,0.000,26.130
5920,3.772,1.625,1.047,0.000,3.839,0.000,0.000,26.109
5940,3.774,1.625,1.056,0.000,3.873,0.000,0.000,26.131
5960,3.775,1.625,1.065,0.000,3.907,0.000,0.000,26.118
5980,3.777,1.625,1.074,0.000,3.941,0.000,0.000,26.100
6000,3.779,1.625,1.083,0.000,3.975,0.000,0.000,26.143
6020,3.781,1.625,1.093,0.000,4.009,0.000,0.000,26.141
6040,3.783,1.625,1.102,0.000,4.043,0.000,0.000,26.124
6060,3.784,1.625,1.111,0.000,4.077,0.000,0.000,26.100
6080,3.786,1.625,1.120,0.000,4.112,0.000,0.000,26.108
6100,3.788,1.625,1.129,0.000,4.146,0.000,0.000,26.155
6120,3.790,1.625,1.138,0.000,4.180,0.000,0.000,26.141
6140,3.792,1.625,1.147,0.000,4.214,0.000,0.000,26.152
6160,3.793,1.625,1.156,0.000,4.248,0.000,0.000,26.115
6180,3.795,1.625,1.165,0.000,4.283,0.000,0.000,26.129
6200,3.797,1.625,1.174,0.000,4.317,0.000,0.000,26.155
6220,3.799,1.625,1.183,0.000,4.351,0.000,0.000,26.162
6240,3.801,1.625,1.192,0.000,4.386,0.000,0.000,26.144
6260,3.803,1.625,1.201,0.000,4.420,0.000,0.000,26.124
6280,3.805,1.625,1.210,0.000,4.454,0.000,0.000,26.108
6300,3.807,1.625,1.219,0.000,4.489,0.000,0.000,26.175
6320,3.809,1.625,1.228,0.000,4.523,0.000,0.000,26.178
6340,3.811,1.625,1.237,0.000,4.557,0.000,0.000,26.211
6360,3.812,1.625,1.246,0.000,4.592,0.000,0.000,26.174
6380,3.815,1.625,1.255,0.000,4.626,0.000,0.000,26.151
6400,3.816,1.625,1.264,0.000,4.661,0.000,0.000,26.146
6420,3.819,1.625,1.273,0.000,4.695,0.000,0.000,26.101
6440,3.821,1.625,1.282,0.000,4.730,0.000,0.000,26.241
6460,3.823,1.625,1.291,0.000,4.764,0.000,0.000,26.196
6480,3.825,1.625,1.300,0.000,4.799,0.000,0.000,26.212
6500,3.827,1.625,1.309,0.000,4.833,0.000,0.000,26.171
6520,3.829,1.625,1.318,0.000,4.868,0.000,0.000,26.166
6540,3.831,1.625,1.327,0.000,4.902,0.000,0.000,26.208
6560,3.833,1.625,1.336,0.000,4.937,0.000,0.000,26.200
6580,3.835,1.625,1.345,0.000,4.972,0.000,0.000,26.177
6600,3.837,1.625,1.354,0.000,5.006,0.000,0.000,26.221
6620,3.840,1.625,1.363,0.000,5.041,0.000,0.000,26.148
6640,3.842,1.625,1.372,0.000,5.076,0.000,0.000,26.168
6660,3.844,1.625,1.381,0.000,5.110,0.000,0.000,26.209
6680,3.846,1.625,1.390,0.000,5.145,0.000,0.000,26.223
6700,3.849,1.625,1.400,0.000,5.180,0.000,0.000,26.217
6720,3.851,1.625,1.409,0.000,5.214,0.000,0.000,26.225
6740,3.853,1.625,1.418,0.000,5.249,0.000,0.000,26.240
6760,3.855,1.625,1.427,0.000,5.284,0.000,0.000,26.191
6780,3.858,1.625,1.436,0.000,5.319,0.000,0.000,26.235
6800,3.860,1.625,1.445,0.000,5.354,0.000,0.000,26.185
6820,3.862,1.625,1.454,0.000,5.389,0.000,0.000,26.180
6840,3.865,1.625,1.463,0.000,5.423,0.000,0.000,26.170
6860,3.867,1.625,1.472,0.000,5.458,0.000,0.000,26.246
6880,3.869,1.625,1.481,0.000,5.493,0.000,0.000,26.227
6900,3.872,1.625,1.490,0.000,5.528,0.000,0.000,26.196
6920,3.874,1.625,1.499,0.000,5.563,0.000,0.000,26.248
6940,3.877,1.625,1.508,0.000,5.598,0.000,0.000,26.221
6960,3.879,1.625,1.517,0.000,5.633,0.000,0.000,26.238
6980,3.882,1.625,1.526,0.000,5.668,0.000,0.000,26.218
7000,3.884,1.625,1.535,0.000,5.703,0.000,0.000,26.215
7020,3.887,1.625,1.544,0.000,5.738,0.000,0.000,26.298
7040,3.889,1.625,1.553,0.000,5.774,0.000,0.000,26.239
7060,3.892,1.625,1.562,0.000,5.809,0.000,0.000,26.226
7080,3.894,1.625,1.571,0.000,5.844,0.000,0.000,26.298
7100,3.897,1.625,1.580,0.000,5.879,0.000,0.000,26.247
7120,3.899,1.625,1.589,0.000,5.914,0.000,0.000,26.267
7140,3.902,1.625,1.598,0.000,5.949,0.000,0.000,26.231
7160,3.904,1.625,1.607,0.000,5.985,0.000,0.000,26.207
7180,3.907,1.625,1.616,0.000,6.020,0.000,0.000,26.248
7200,3.909,1.625,1.625,0.000,6.055,0.000,0.000,26.278
7220,3.912,1.625,1.634,0.000,6.090,0.000,0.000,26.267
7240,3.914,1.625,1.643,0.000,6.126,0.000,0.000,26.245
7260,3.917,1.625,1.652,0.000,6.161,0.000,0.000,26.282
7280,3.920,1.625,1.661,0.000,6.197,0.000,0.000,26.277
7300,3.922,1.625,1.670,0.000,6.232,0.000,0.000,26.291
7320,3.925,1.625,1.679,0.000,6.267,0.000,0.000,26.272
7340,3.928,1.625,1.688,0.000,6.303,0.000,0.000,26.277
7360,3.930,1.625,1.697,0.000,6.338,0.000,0.000,26.248
7380,3.933,1.625,1.707,0.000,6.374,0.000,0.000,26.278
7400,3.935,1.625,1.716,0.000,6.409,0.000,0.000,26.286
7420,3.938,1.625,1.725,0.000,6.445,0.000,0.000,26.286
7440,3.941,1.625,1.734,0.000,6.480,0.000,0.000,26.354
7460,3.943,1.625,1.743,0.000,6.516,0.000,0.000,26.270
7480,3.946,1.625,1.752,0.000,6.552,0.000,0.000,26.298
7500,3.949,1.625,1.761,0.000,6.587,0.000,0.000,26.325
7520,3.951,1.625,1.770,0.000,6.623,0.000,0.000,26.247
7540,3.954,1.625,1.779,0.000,6.659,0.000,0.000,26.317
7560,3.956,1.625,1.788,0.000,6.694,0.000,0.000,26.329
7580,3.959,1.625,1.797,0.000,6.730,0.000,0.000,26.275
7600,3.962,1.625,1.806,0.000,6.766,0.000,0.000,26.315
7620,3.964,1.625,1.815,0.000,6.802,0.000,0.000,26.307
7640,3.967,1.625,1.824,0.000,6.837,0.000,0.000,26.298
7660,3.970,1.625,1.833,0.000,6.873,0.000,0.000,26.289
7680,3.972,1.625,1.842,0.000,6.909,0.000,0.000,26.321
7700,3.975,1.625,1.851,0.000,6.945,0.000,0.000,26.297
7720,3.977,1.625,1.860,0.000,6.981,0.000,0.000,26.322
7740,3.980,1.625,1.869,0.000,7.017,0.000,0.000,26.323
7760,3.983,1.625,1.878,0.000,7.053,0.000,0.000,26.276
7780,3.985,1.625,1.887,0.000,7.089,0.000,0.000,26.325
7800,3.988,1.625,1.896,0.000,7.125,0.000,0.000,26.267
7820,3.990,1.625,1.905,0.000,7.161,0.000,0.000,26.312
7840,3.993,1.625,1.914,0.000,7.197,0.000,0.000,26.342
7860,3.996,1.625,1.923,0.000,7.233,0.000,0.000,26.319
7880,3.998,1.625,1.932,0.000,7.269,0.000,0.000,26.272
7900,4.001,1.625,1.941,0.000,7.305,0.000,0.000,26.276
7920,4.003,1.625,1.950,0.000,7.341,0.000,0.000,26.291
7940,4.006,1.625,1.959,0.000,7.377,0.000,0.000,26.336
7960,4.009,1.625,1.968,0.000,7.414,0.000,0.000,26.301
7980,4.011,1.625,1.977,0.000,7.450,0.000,0.000,26.313
8000,4.014,1.625,1.986,0.000,7.486,0.000,0.000,26.301
8020,4.016,1.625,1.995,0.000,7.522,0.000,0.000,26.340
8040,4.019,1.625,2.004,0.000,7.558,0.000,0.000,26.320
8060,4.022,1.625,2.014,0.000,7.595,0.000,0.000,26.312
8080,4.024,1.625,2.023,0.000,7.631,0.000,0.000,26.338
8100,4.027,1.625,2.032,0.000,7.667,0.000,0.000,26.357
8120,4.029,1.625,2.041,0.000,7.704,0.000,0.000,26.310
8140,4.032,1.625,2.050,0.000,7.740,0.000,0.000,26.308
8160,4.035,1.625,2.059,0.000,7.777,0.000,0.000,26.323
8180,4.037,1.625,2.068,0.000,7.813,0.000,0.000,26.311
8200,4.040,1.625,2.077,0.000,7.850,0.000,0.000,26.307
8220,4.042,1.625,2.086,0.000,7.886,0.000,0.000,26.338
8240,4.045,1.625,2.095,0.000,7.923,0.000,0.000,26.305
8260,4.047,1.625,2.104,0.000,7.959,0.000,0.000,26.345
8280,4.050,1.625,2.113,0.000,7.996,0.000,0.000,26.319
8300,4.053,1.625,2.122,0.000,8.032,0.000,0.000,26.345
8320,4.055,1.625,2.131,0.000,8.069,0.000,0.000,26.289
8340,4.058,1.625,2.140,0.000,8.105,0.000,0.000,26.314
8360,4.061,1.625,2.149,0.000,8.142,0.000,0.000,26.393
8380,4.063,1.625,2.158,0.000,8.179,0.000,0.000,26.369
8400,4.066,1.625,2.167,0.000,8.215,0.000,0.000,26.375
8420,4.069,1.625,2.176,0.000,8.252,0.000,0.000,26.362
8440,4.071,1.625,2.185,0.000,8.289,0.000,0.000,26.360
8460,4.074,1.625,2.194,0.000,8.326,0.000,0.000,26.351
8480,4.077,1.625,2.203,0.000,8.362,0.000,0.000,26.387
8500,4.079,1.625,2.212,0.000,8.399,0.000,0.000,26.391
8520,4.082,1.625,2.221,0.000,8.436,0.000,0.000,26.377
8540,4.085,1.625,2.230,0.000,8.473,0.000,0.000,26.416
8560,4.088,1.625,2.239,0.000,8.510,0.000,0.000,26.396
8580,4.091,1.625,2.248,0.000,8.547,0.000,0.000,26.412
8600,4.094,1.625,2.257,0.000,8.584,0.000,0.000,26.357
8620,4.096,1.625,2.266,0.000,8.621,0.000,0.000,26.431
8640,4.099,1.625,2.275,0.000,8.658,0.000,0.000,26.407
8660,4.102,1.625,2.284,0.000,8.695,0.000,0.000,26.401
8680,4.105,1.625,2.293,0.000,8.732,0.000,0.000,26.407
8700,4.108,1.625,2.302,0.000,8.769,0.000,0.000,26.445
8720,4.111,1.625,2.311,0.000,8.806,0.000,0.000,26.425
8740,4.114,1.625,2.320,0.000,8.843,0.000,0.000,26.439
8760,4.117,1.625,2.330,0.000,8.880,0.000,0.000,26.465
8780,4.120,1.625,2.339,0.000,8.918,0.000,0.000,26.414
8800,4.124,1.625,2.348,0.000,8.955,0.000,0.000,26.459
8820,4.127,1.625,2.357,0.000,8.992,0.000,0.000,26.466
8840,4.130,1.625,2.366,0.000,9.029,0.000,0.000,26.529
8860,4.133,1.625,2.375,0.000,9.067,0.000,0.000,26.477
8880,4.136,1.625,2.384,0.000,9.104,0.000,0.000,26.516
8900,4.139,1.625,2.393,0.000,9.141,0.000,0.000,26.480
8920,4.143,1.625,2.402,0.000,9.179,0.000,0.000,26.504
8940,4.146,1.625,2.411,0.000,9.216,0.000,0.000,26.513
8960,4.149,1.625,2.420,0.000,9.254,0.000,0.000,26.511
8980,4.153,1.625,2.429,0.000,9.291,0.000,0.000,26.542
9000,4.156,1.625,2.438,0.000,9.329,0.000,0.000,26.542
9020,4.160,1.625,2.447,0.000,9.366,0.000,0.000,26.536
9040,4.163,1.625,2.456,0.000,9.404,0.000,0.000,26.548
9060,4.166,1.625,2.465,0.000,9.441,0.000,0.000,26.578
9080,4.170,1.625,2.474,0.000,9.479,0.000,0.000,26.598
9100,4.173,1.625,2.483,0.000,9.517,0.000,0.000,26.571
9120,4.177,1.625,2.492,0.000,9.554,0.000,0.000,26.558
9140,4.180,1.625,2.501,0.000,9.592,0.000,0.000,26.588
9160,4.184,1.625,2.510,0.000,9.630,0.000,0.000,26.642
9180,4.187,1.625,2.519,0.000,9.668,0.000,0.000,26.609
9200,4.191,1.625,2.528,0.000,9.705,0.000,0.000,26.626
9220,4.194,1.625,2.537,0.000,9.743,0.000,0.000,26.634
9240,4.197,1.625,2.546,0.000,9.781,0.000,0.000,26.610
9259,4.200,1.616,2.555,0.000,9.818,0.000,0.000,26.630
9279,4.200,1.566,2.564,0.000,9.855,0.000,0.000,26.647
9299,4.200,1.524,2.572,0.000,9.891,0.000,0.000,26.648
9319,4.200,1.488,2.581,0.000,9.926,0.000,0.000,26.612
9339,4.200,1.455,2.589,0.000,9.960,0.000,0.000,26.678
9359,4.200,1.423,2.597,0.000,9.994,0.000,0.000,26.612
9379,4.200,1.391,2.605,0.000,10.027,0.000,0.000,26.594
9399,4.200,1.362,2.612,0.000,10.059,0.000,0.000,26.552
9419,4.200,1.334,2.620,0.000,10.090,0.000,0.000,26.550
9439,4.200,1.307,2.627,0.000,10.121,0.000,0.000,26.571
9459,4.200,1.279,2.634,0.000,10.151,0.000,0.000,26.508
9479,4.200,1.252,2.641,0.000,10.181,0.000,0.000,26.518
9499,4.200,1.228,2.648,0.000,10.210,0.000,0.000,26.519
9519,4.200,1.202,2.655,0.000,10.238,0.000,0.000,26.457
9539,4.200,1.178,2.662,0.000,10.266,0.000,0.000,26.408
9559,4.200,1.155,2.668,0.000,10.293,0.000,0.000,26.400
9579,4.200,1.133,2.674,0.000,10.320,0.000,0.000,26.345
9599,4.200,1.111,2.681,0.000,10.346,0.000,0.000,26.404
9619,4.200,1.089,2.687,0.000,10.371,0.000,0.000,26.365
9639,4.200,1.069,2.693,0.000,10.397,0.000,0.000,26.302
9659,4.200,1.050,2.699,0.000,10.421,0.000,0.000,26.264
9679,4.200,1.031,2.704,0.000,10.445,0.000,0.000,26.228
9699,4.200,1.012,2.710,0.000,10.469,0.000,0.000,26.232
9719,4.200,0.995,2.716,0.000,10.493,0.000,0.000,26.184
9739,4.200,0.977,2.721,0.000,10.516,0.000,0.000,26.160
9759,4.200,0.960,2.727,0.000,10.538,0.000,0.000,26.129
9779,4.200,0.943,2.732,0.000,10.561,0.000,0.000,26.089
9799,4.200,0.928,2.737,0.000,10.582,0.000,0.000,26.066
9819,4.200,0.913,2.742,0.000,10.604,0.000,0.000,26.065
9839,4.200,0.896,2.747,0.000,10.625,0.000,0.000,26.004
9859,4.200,0.882,2.752,0.000,10.646,0.000,0.000,26.022
9879,4.200,0.868,2.757,0.000,10.666,0.000,0.000,25.975
9899,4.200,0.854,2.762,0.000,10.686,0.000,0.000,25.948
9919,4.200,0.840,2.766,0.000,10.706,0.000,0.000,25.941
9939,4.200,0.827,2.771,0.000,10.725,0.000,0.000,25.896
9959,4.200,0.814,2.776,0.000,10.744,0.000,0.000,25.931
9979,4.200,0.801,2.780,0.000,10.763,0.000,0.000,25.849
9999,4.200,0.790,2.785,0.000,10.782,0.000,0.000,25.871
10019,4.200,0.778,2.789,0.000,10.800,0.000,0.000,25.807
10039,4.200,0.767,2.793,0.000,10.818,0.000,0.000,25.792
10059,4.200,0.755,2.797,0.000,10.836,0.000,0.000,25.808
10079,4.200,0.744,2.802,0.000,10.853,0.000,0.000,25.752
10099,4.200,0.734,2.806,0.000,10.871,0.000,0.000,25.734
10119,4.200,0.724,2.810,0.000,10.888,0.000,0.000,25.712
10139,4.200,0.714,2.814,0.000,10.904,0.000,0.000,25.713
10159,4.200,0.704,2.818,0.000,10.921,0.000,0.000,25.722
10179,4.200,0.695,2.822,0.000,10.937,0.000,0.000,25.662
10199,4.200,0.685,2.825,0.000,10.953,0.000,0.000,25.693
10219,4.200,0.677,2.829,0.000,10.969,0.000,0.000,25.619
10239,4.200,0.668,2.833,0.000,10.985,0.000,0.000,25.618
10259,4.200,0.660,2.837,0.000,11.001,0.000,0.000,25.611
10279,4.200,0.651,2.840,0.000,11.016,0.000,0.000,25.547
10299,4.200,0.642,2.844,0.000,11.031,0.000,0.000,25.575
10319,4.200,0.634,2.847,0.000,11.046,0.000,0.000,25.573
10339,4.200,0.626,2.851,0.000,11.060,0.000,0.000,25.547
10359,4.200,0.618,2.854,0.000,11.075,0.000,0.000,25.490
10379,4.200,0.610,2.858,0.000,11.089,0.000,0.000,25.486
10399,4.200,0.602,2.861,0.000,11.103,0.000,0.000,25.486
10419,4.200,0.594,2.864,0.000,11.117,0.000,0.000,25.481
10439,4.200,0.586,2.868,0.000,11.131,0.000,0.000,25.469
10459,4.200,0.579,2.871,0.000,11.145,0.000,0.000,25.455
10479,4.200,0.570,2.874,0.000,11.158,0.000,0.000,25.445
10499,4.200,0.562,2.877,0.000,11.171,0.000,0.000,25.396
10519,4.200,0.556,2.880,0.000,11.184,0.000,0.000,25.465
10539,4.200,0.548,2.883,0.000,11.197,0.000,0.000,25.424
10559,4.200,0.541,2.886,0.000,11.210,0.000,0.000,25.408
10579,4.200,0.533,2.889,0.000,11.222,0.000,0.000,25.337
10599,4.200,0.526,2.892,0.000,11.235,0.000,0.000,25.324
10619,4.200,0.519,2.895,0.000,11.247,0.000,0.000,25.350
10639,4.200,0.511,2.898,0.000,11.259,0.000,0.000,25.298
10659,4.200,0.504,2.901,0.000,11.271,0.000,0.000,25.313
10679,4.200,0.497,2.904,0.000,11.283,0.000,0.000,25.304
10699,4.200,0.490,2.906,0.000,11.294,0.000,0.000,25.291
10719,4.200,0.484,2.909,0.000,11.305,0.000,0.000,25.313
10739,4.200,0.477,2.912,0.000,11.317,0.000,0.000,25.280
10759,4.200,0.470,2.914,0.000,11.328,0.000,0.000,25.251
10779,4.200,0.462,2.917,0.000,11.339,0.000,0.000,25.276
10799,4.200,0.456,2.920,0.000,11.349,0.000,0.000,25.240
10819,4.200,0.449,2.922,0.000,11.360,0.000,0.000,25.226
10839,4.200,0.444,2.925,0.000,11.370,0.000,0.000,25.219
10859,4.200,0.437,2.927,0.000,11.381,0.000,0.000,25.152
10879,4.200,0.430,2.929,0.000,11.391,0.000,0.000,25.205
10899,4.200,0.424,2.932,0.000,11.401,0.000,0.000,25.196
10919,4.200,0.417,2.934,0.000,11.410,0.000,0.000,25.171
10939,4.200,0.412,2.936,0.000,11.420,0.000,0.000,25.147
10959,4.200,0.405,2.939,0.000,11.430,0.000,0.000,25.179
10979,4.200,0.399,2.941,0.000,11.439,0.000,0.000,25.155
10999,4.200,0.393,2.943,0.000,11.448,0.000,0.000,25.127
11019,4.200,0.388,2.945,0.000,11.457,0.000,0.000,25.150
11039,4.200,0.380,2.947,0.000,11.466,0.000,0.000,25.149
11059,4.200,0.376,2.950,0.000,11.475,0.000,0.000,25.113
11079,4.200,0.369,2.952,0.000,11.484,0.000,0.000,25.111
11099,4.200,0.364,2.954,0.000,11.492,0.000,0.000,25.077
11119,4.200,0.358,2.956,0.000,11.501,0.000,0.000,25.088
11139,4.200,0.353,2.958,0.000,11.509,0.000,0.000,25.108
11159,4.200,0.347,2.960,0.000,11.517,0.000,0.000,25.083
11179,4.200,0.342,2.962,0.000,11.525,0.000,0.000,25.057
11199,4.200,0.336,2.963,0.000,11.533,0.000,0.000,25.033
11219,4.200,0.331,2.965,0.000,11.541,0.000,0.000,25.047
11239,4.200,0.326,2.967,0.000,11.549,0.000,0.000,25.046
11259,4.200,0.321,2.969,0.000,11.556,0.000,0.000,25.050
11279,4.200,0.316,2.971,0.000,11.564,0.000,0.000,25.054
11299,4.200,0.311,2.972,0.000,11.571,0.000,0.000,25.037
11319,4.200,0.306,2.974,0.000,11.578,0.000,0.000,25.041
11339,4.200,0.301,2.976,0.000,11.585,0.000,0.000,24.979
11359,4.200,0.296,2.977,0.000,11.592,0.000,0.000,24.981
11379,4.200,0.291,2.979,0.000,11.599,0.000,0.000,24.976
11399,4.200,0.287,2.981,0.000,11.606,0.000,0.000,24.971
11419,4.200,0.283,2.982,0.000,11.612,0.000,0.000,25.000
11439,4.200,0.279,2.984,0.000,11.619,0.000,0.000,24.972
11459,4.200,0.273,2.985,0.000,11.625,0.000,0.000,24.985
11479,4.200,0.269,2.987,0.000,11.632,0.000,0.000,24.991
11499,4.200,0.265,2.988,0.000,11.638,0.000,0.000,24.986
11519,4.200,0.260,2.990,0.000,11.644,0.000,0.000,24.956
11539,4.200,0.256,2.991,0.000,11.650,0.000,0.000,24.956
11559,4.200,0.252,2.993,0.000,11.656,0.000,0.000,24.942
11579,4.200,0.247,2.994,0.000,11.662,0.000,0.000,24.949
11599,4.200,0.244,2.995,0.000,11.668,0.000,0.000,24.913
11619,4.200,0.239,2.997,0.000,11.673,0.000,0.000,24.920
11639,4.200,0.236,2.998,0.000,11.679,0.000,0.000,24.920
11659,4.200,0.232,2.999,0.000,11.684,0.000,0.000,24.891
11679,4.200,0.229,3.001,0.000,11.690,0.000,0.000,24.907
11699,4.200,0.225,3.002,0.000,11.695,0.000,0.000,24.931
11719,4.200,0.221,3.003,0.000,11.700,0.000,0.000,24.897
11739,4.200,0.217,3.004,0.000,11.705,0.000,0.000,24.889
11759,4.200,0.214,3.006,0.000,11.710,0.000,0.000,24.874
11779,4.200,0.210,3.007,0.000,11.715,0.000,0.000,24.892
11799,4.200,0.207,3.008,0.000,11.720,0.000,0.000,24.908
11819,4.200,0.203,3.009,0.000,11.725,0.000,0.000,24.885
11839,4.200,0.200,3.010,0.000,11.729,0.000,0.000,24.864
11859,4.200,0.197,3.011,0.000,11.734,0.000,0.000,24.854
11879,4.200,0.194,3.012,0.000,11.739,0.000,0.000,24.844
11899,4.200,0.190,3.013,0.000,11.743,0.000,0.000,24.822
11919,4.200,0.187,3.014,0.000,11.747,0.000,0.000,24.867
11939,4.200,0.184,3.015,0.000,11.752,0.000,0.000,24.848
11959,4.200,0.181,3.016,0.000,11.756,0.000,0.000,24.831
11979,4.200,0.178,3.017,0.000,11.760,0.000,0.000,24.865
11999,4.200,0.175,3.018,0.000,11.764,0.000,0.000,24.889
12019,4.200,0.173,3.019,0.000,11.768,0.000,0.000,24.826
12039,4.200,0.170,3.020,0.000,11.772,0.000,0.000,24.808
12059,4.200,0.167,3.021,0.000,11.776,0.000,0.000,24.827
12079,4.200,0.165,3.022,0.000,11.780,0.000,0.000,24.820
12099,4.200,0.161,3.023,0.000,11.784,0.000,0.000,24.813
12119,4.200,0.159,3.024,0.000,11.788,0.000,0.000,24.845
12139,4.200,0.156,3.025,0.000,11.791,0.000,0.000,24.783
12159,4.200,0.154,3.026,0.000,11.795,0.000,0.000,24.771
12179,4.200,0.151,3.027,0.000,11.799,0.000,0.000,24.824
12199,4.200,0.149,3.027,0.000,11.802,0.000,0.000,24.802
12219,4.200,0.146,3.028,0.000,11.806,0.000,0.000,24.811
12239,4.200,0.144,3.029,0.000,11.809,0.000,0.000,24.793
12259,4.200,0.142,3.030,0.000,11.812,0.000,0.000,24.771
12279,4.200,0.139,3.031,0.000,11.816,0.000,0.000,24.784
12299,4.200,0.137,3.031,0.000,11.819,0.000,0.000,24.802
12319,4.200,0.135,3.032,0.000,11.822,0.000,0.000,24.798
12339,4.200,0.133,3.033,0.000,11.825,0.000,0.000,24.810
12359,4.200,0.131,3.034,0.000,11.828,0.000,0.000,24.777
12379,4.200,0.129,3.034,0.000,11.831,0.000,0.000,24.762
12399,4.200,0.128,3.035,0.000,11.834,0.000,0.000,24.793
12419,4.200,0.125,3.036,0.000,11.837,0.000,0.000,24.721
12439,4.200,0.122,3.036,0.000,11.840,0.000,0.000,24.808
12459,4.200,0.120,3.037,0.000,11.843,0.000,0.000,24.780
12479,4.200,0.119,3.038,0.000,11.846,0.000,0.000,24.762
12499,4.200,0.117,3.038,0.000,11.848,0.000,0.000,24.802
12519,4.200,0.115,3.039,0.000,11.851,0.000,0.000,24.789
12539,4.200,0.114,3.040,0.000,11.854,0.000,0.000,24.763
12559,4.200,0.112,3.040,0.000,11.856,0.000,0.000,24.739
12579,4.200,0.110,3.041,0.000,11.859,0.000,0.000,24.765
12599,4.200,0.106,3.042,0.000,11.861,0.000,0.000,24.799
12619,4.200,0.105,3.042,0.000,11.864,0.000,0.000,24.778
12639,4.200,0.104,3.043,0.000,11.866,0.000,0.000,24.806
12659,4.200,0.103,3.043,0.000,11.869,0.000,0.000,24.824
12679,4.200,0.101,3.044,0.000,11.871,0.000,0.000,24.852
12699,4.200,0.099,3.044,0.000,11.873,0.000,0.000,24.828
12719,4.200,0.098,3.045,0.000,11.876,0.000,0.000,24.767
12739,4.200,0.097,3.046,0.000,11.878,0.000,0.000,24.718
12759,4.200,0.095,3.046,0.000,11.880,0.000,0.000,24.713
12779,4.200,0.093,3.047,0.000,11.883,0.000,0.000,24.778
12799,4.200,0.093,3.047,0.000,11.885,0.000,0.000,24.785
12819,4.200,0.092,3.048,0.000,11.887,0.000,0.000,24.935
12839,4.200,0.090,3.048,0.000,11.889,0.000,0.000,25.007
12859,4.200,0.089,3.049,0.000,11.891,0.000,0.000,25.099
12879,4.200,0.087,3.049,0.000,11.893,0.000,0.000,25.295
12899,4.200,0.086,3.050,0.000,11.895,0.000,0.000,25.455
12919,4.200,0.085,3.050,0.000,11.897,0.000,0.000,25.502
12939,4.200,0.084,3.051,0.000,11.899,0.000,0.000,25.433
12959,4.200,0.082,3.051,0.000,11.901,0.000,0.000,25.357
12979,4.200,0.082,3.051,0.000,11.903,0.000,0.000,25.317
12999,4.200,0.081,3.052,0.000,11.905,0.000,0.000,25.320
13019,4.200,0.080,3.052,0.000,11.907,0.000,0.000,25.351
13039,4.200,0.078,3.053,0.000,11.909,0.000,0.000,25.247
13059,4.200,0.078,3.053,0.000,11.910,0.000,0.000,25.234
13079,4.200,0.077,3.054,0.000,11.912,0.000,0.000,25.174
13099,4.200,0.076,3.054,0.000,11.914,0.000,0.000,25.149
13119,4.200,0.074,3.054,0.000,11.916,0.000,0.000,25.091
13139,4.200,0.074,3.055,0.000,11.917,0.000,0.000,25.082
13159,4.200,0.073,3.055,0.000,11.919,0.000,0.000,25.043
13179,4.200,0.071,3.056,0.000,11.921,0.000,0.000,25.038
13199,4.200,0.070,3.056,0.000,11.923,0.000,0.000,25.020
13219,4.200,0.070,3.056,0.000,11.924,0.000,0.000,25.070
13239,4.200,0.069,3.057,0.000,11.926,0.000,0.000,25.069
13259,4.200,0.067,3.057,0.000,11.927,0.000,0.000,25.043
13279,4.200,0.067,3.058,0.000,11.929,0.000,0.000,25.072
13299,4.200,0.066,3.058,0.000,11.930,0.000,0.000,25.044
13318,4.196,0.000,3.058,0.000,11.932,0.000,0.000,25.064
13338,4.195,0.000,3.058,0.000,11.932,0.000,0.000,25.032
13358,4.194,0.000,3.058,0.000,11.932,0.000,0.000,25.014
13378,4.193,0.000,3.058,0.000,11.932,0.000,0.000,25.065
13398,4.193,0.000,3.058,0.000,11.932,0.000,0.000,25.035
13418,4.193,0.000,3.058,0.000,11.932,0.000,0.000,25.066
13438,4.192,0.000,3.058,0.000,11.932,0.000,0.000,25.104
13458,4.192,0.000,3.058,0.000,11.932,0.000,0.000,25.062
13478,4.192,0.000,3.058,0.000,11.932,0.000,0.000,25.062
13498,4.191,0.000,3.058,0.000,11.932,0.000,0.000,25.065
13518,4.191,0.000,3.058,0.000,11.932,0.000,0.000,25.043
13538,4.191,0.000,3.058,0.000,11.932,0.000,0.000,25.088
13558,4.190,0.000,3.058,0.000,11.932,0.000,0.000,25.052
13578,4.190,0.000,3.058,0.000,11.932,0.000,0.000,25.063
13598,4.190,0.000,3.058,0.000,11.932,0.000,0.000,25.048
13618,4.190,0.000,3.058,0.000,11.932,0.000,0.000,25.058
13638,4.190,0.000,3.058,0.000,11.932,0.000,0.000,25.085
13658,4.189,0.000,3.058,0.000,11.932,0.000,0.000,25.045
13678,4.189,0.000,3.058,0.000,11.932,0.000,0.000,25.099
13698,4.189,0.000,3.058,0.000,11.932,0.000,0.000,25.080
13718,4.189,0.000,3.058,0.000,11.932,0.000,0.000,25.097
13738,4.189,0.000,3.058,0.000,11.932,0.000,0.000,25.107
13758,4.189,0.000,3.058,0.000,11.932,0.000,0.000,25.109
13778,4.188,0.000,3.058,0.000,11.932,0.000,0.000,25.099
13798,4.188,0.000,3.058,0.000,11.932,0.000,0.000,25.138
13818,4.188,0.000,3.058,0.000,11.932,0.000,0.000,25.066
13838,4.188,0.000,3.058,0.000,11.932,0.000,0.000,25.064
13858,4.188,0.000,3.058,0.000,11.932,0.000,0.000,25.083
13878,4.188,0.000,3.058,0.000,11.932,0.000,0.000,25.118
13898,4.187,0.000,3.058,0.000,11.932,0.000,0.000,25.123
13918,4.187,0.000,3.058,0.000,11.932,0.000,0.000,25.093
13938,4.187,0.000,3.058,0.000,11.932,0.000,0.000,25.124
13958,4.187,0.000,3.058,0.000,11.932,0.000,0.000,25.138
13978,4.187,0.000,3.058,0.000,11.932,0.000,0.000,25.117
13998,4.187,0.000,3.058,0.000,11.932,0.000,0.000,25.127
14018,4.187,0.000,3.058,0.000,11.932,0.000,0.000,25.124
14038,4.186,0.000,3.058,0.000,11.932,0.000,0.000,25.111
14058,4.186,0.000,3.058,0.000,11.932,0.000,0.000,25.093
14078,4.186,0.000,3.058,0.000,11.932,0.000,0.000,25.087
14098,4.186,0.000,3.058,0.000,11.932,0.000,0.000,25.100
14118,4.186,0.000,3.058,0.000,11.932,0.000,0.000,25.135
14138,4.186,0.000,3.058,0.000,11.932,0.000,0.000,25.104
14158,4.186,0.000,3.058,0.000,11.932,0.000,0.000,25.147
14178,4.186,0.000,3.058,0.000,11.932,0.000,0.000,25.134
14198,4.185,0.000,3.058,0.000,11.932,0.000,0.000,25.126
14218,4.185,0.000,3.058,0.000,11.932,0.000,0.000,25.125
14238,4.185,0.000,3.058,0.000,11.932,0.000,0.000,25.163
14258,4.185,0.000,3.058,0.000,11.932,0.000,0.000,25.135
14278,4.185,0.000,3.058,0.000,11.932,0.000,0.000,25.073
14298,4.185,0.000,3.058,0.000,11.932,0.000,0.000,25.139
14318,4.185,0.000,3.058,0.000,11.932,0.000,0.000,25.135
14338,4.185,0.000,3.058,0.000,11.932,0.000,0.000,25.170
14358,4.185,0.000,3.058,0.000,11.932,0.000,0.000,25.153
14378,4.185,0.000,3.058,0.000,11.932,0.000,0.000,25.154
14398,4.184,0.000,3.058,0.000,11.932,0.000,0.000,25.125
14418,4.184,0.000,3.058,0.000,11.932,0.000,0.000,25.141
14438,4.184,0.000,3.058,0.000,11.932,0.000,0.000,25.100
14458,4.184,0.000,3.058,0.000,11.932,0.000,0.000,25.176
14478,4.184,0.000,3.058,0.000,11.932,0.000,0.000,25.150
14498,4.184,0.000,3.058,0.000,11.932,0.000,0.000,25.182
14518,4.184,0.000,3.058,0.000,11.932,0.000,0.000,25.134
14538,4.184,0.000,3.058,0.000,11.932,0.000,0.000,25.082
14558,4.184,0.000,3.058,0.000,11.932,0.000,0.000,25.112
14578,4.184,0.000,3.058,0.000,11.932,0.000,0.000,25.140
14598,4.184,0.000,3.058,0.000,11.932,0.000,0.000,25.147
14618,4.184,0.000,3.058,0.000,11.932,0.000,0.000,25.121
14638,4.183,0.000,3.058,0.000,11.932,0.000,0.000,25.157
14658,4.183,0.000,3.058,0.000,11.932,0.000,0.000,25.174
14678,4.183,0.000,3.058,0.000,11.932,0.000,0.000,25.121
14698,4.183,0.000,3.058,0.000,11.932,0.000,0.000,25.122
14718,4.183,0.000,3.058,0.000,11.932,0.000,0.000,25.100
14738,4.183,0.000,3.058,0.000,11.932,0.000,0.000,25.135
14758,4.183,0.000,3.058,0.000,11.932,0.000,0.000,25.066
14778,4.183,0.000,3.058,0.000,11.932,0.000,0.000,25.120
14798,4.183,0.000,3.058,0.000,11.932,0.000,0.000,25.113
14818,4.183,0.000,3.058,0.000,11.932,0.000,0.000,25.090
14838,4.183,0.000,3.058,0.000,11.932,0.000,0.000,25.126
14858,4.183,0.000,3.058,0.000,11.932,0.000,0.000,25.093
14878,4.182,0.000,3.058,0.000,11.932,0.000,0.000,25.077
14898,4.182,0.000,3.058,0.000,11.932,0.000,0.000,25.072
14918,4.182,0.000,3.058,0.000,11.932,0.000,0.000,25.061
14938,4.182,0.000,3.058,0.000,11.932,0.000,0.000,25.095
14958,4.182,0.000,3.058,0.000,11.932,0.000,0.000,25.098
14978,4.182,0.000,3.058,0.000,11.932,0.000,0.000,25.076
14998,4.182,0.000,3.058,0.000,11.932,0.000,0.000,25.053
15018,4.182,0.000,3.058,0.000,11.932,0.000,0.000,25.094
15038,4.182,0.000,3.058,0.000,11.932,0.000,0.000,25.068
15058,4.182,0.000,3.058,0.000,11.932,0.000,0.000,25.078
15078,4.182,0.000,3.058,0.000,11.932,0.000,0.000,25.097
15098,4.182,0.000,3.058,0.000,11.932,0.000,0.000,25.073
15118,4.182,0.000,3.058,0.000,11.932,0.000,0.000,25.038
15138,4.182,0.000,3.058,0.000,11.932,0.000,0.000,25.063
15158,4.182,0.000,3.058,0.000,11.932,0.000,0.000,25.068
15178,4.182,0.000,3.058,0.000,11.932,0.000,0.000,25.098
15198,4.181,0.000,3.058,0.000,11.932,0.000,0.000,25.034
15218,4.181,0.000,3.058,0.000,11.932,0.000,0.000,25.025
15238,4.181,0.000,3.058,0.000,11.932,0.000,0.000,25.053
15258,4.181,0.000,3.058,0.000,11.932,0.000,0.000,25.063
15278,4.181,0.000,3.058,0.000,11.932,0.000,0.000,25.031
15298,4.181,0.000,3.058,0.000,11.932,0.000,0.000,25.061
15318,4.181,0.000,3.058,0.000,11.932,0.000,0.000,25.016
15338,4.181,0.000,3.058,0.000,11.932,0.000,0.000,25.027
15358,4.181,0.000,3.058,0.000,11.932,0.000,0.000,25.053
15378,4.181,0.000,3.058,0.000,11.932,0.000,0.000,25.029
15398,4.181,0.000,3.058,0.000,11.932,0.000,0.000,24.952
15418,4.181,0.000,3.058,0.000,11.932,0.000,0.000,25.037
15438,4.181,0.000,3.058,0.000,11.932,0.000,0.000,25.007
15458,4.181,0.000,3.058,0.000,11.932,0.000,0.000,24.972
15478,4.181,0.000,3.058,0.000,11.932,0.000,0.000,24.960
15498,4.180,0.000,3.058,0.000,11.932,0.000,0.000,24.993
15518,4.181,0.000,3.058,0.000,11.932,0.000,0.000,24.959
15538,4.181,0.000,3.058,0.000,11.932,0.000,0.000,24.985
15558,4.181,0.000,3.058,0.000,11.932,0.000,0.000,24.997
15578,4.180,0.000,3.058,0.000,11.932,0.000,0.000,24.935
15598,4.180,0.000,3.058,0.000,11.932,0.000,0.000,24.976
15618,4.180,0.000,3.058,0.000,11.932,0.000,0.000,24.958
15638,4.180,0.000,3.058,0.000,11.932,0.000,0.000,24.942
15658,4.180,0.000,3.058,0.000,11.932,0.000,0.000,24.932
15678,4.180,0.000,3.058,0.000,11.932,0.000,0.000,24.904
15698,4.180,0.000,3.058,0.000,11.932,0.000,0.000,24.912
15718,4.180,0.000,3.058,0.000,11.932,0.000,0.000,24.954
15738,4.180,0.000,3.058,0.000,11.932,0.000,0.000,24.912
15758,4.180,0.000,3.058,0.000,11.932,0.000,0.000,24.916
15778,4.180,0.000,3.058,0.000,11.932,0.000,0.000,24.889
15798,4.180,0.000,3.058,0.000,11.932,0.000,0.000,24.935
15818,4.180,0.000,3.058,0.000,11.932,0.000,0.000,24.862
15838,4.180,0.000,3.058,0.000,11.932,0.000,0.000,24.906
15858,4.180,0.000,3.058,0.000,11.932,0.000,0.000,24.860
15878,4.180,0.000,3.058,0.000,11.932,0.000,0.000,24.836
15898,4.180,0.000,3.058,0.000,11.932,0.000,0.000,24.851
15918,4.180,0.000,3.058,0.000,11.932,0.000,0.000,24.848
15938,4.180,0.000,3.058,0.000,11.932,0.000,0.000,24.853
15958,4.180,0.000,3.058,0.000,11.932,0.000,0.000,24.894
15978,4.180,0.000,3.058,0.000,11.932,0.000,0.000,24.833
15998,4.180,0.000,3.058,0.000,11.932,0.000,0.000,24.806
16018,4.179,0.000,3.058,0.000,11.932,0.000,0.000,24.811
16038,4.179,0.000,3.058,0.000,11.932,0.000,0.000,24.823
16058,4.179,0.000,3.058,0.000,11.932,0.000,0.000,24.826
16078,4.179,0.000,3.058,0.000,11.932,0.000,0.000,24.814
16098,4.179,0.000,3.058,0.000,11.932,0.000,0.000,24.817
16118,4.179,0.000,3.058,0.000,11.932,0.000,0.000,24.799
16138,4.179,0.000,3.058,0.000,11.932,0.000,0.000,24.774
16158,4.179,0.000,3.058,0.000,11.932,0.000,0.000,24.788
16178,4.179,0.000,3.058,0.000,11.932,0.000,0.000,24.743
16198,4.179,0.000,3.058,0.000,11.932,0.000,0.000,24.761
16218,4.179,0.000,3.058,0.000,11.932,0.000,0.000,24.757
16238,4.179,0.000,3.058,0.000,11.932,0.000,0.000,24.735
16258,4.179,0.000,3.058,0.000,11.932,0.000,0.000,24.738
16278,4.179,0.000,3.058,0.000,11.932,0.000,0.000,24.718
16298,4.179,0.000,3.058,0.000,11.932,0.000,0.000,24.683
16318,4.179,0.000,3.058,0.000,11.932,0.000,0.000,24.727
16338,4.179,0.000,3.058,0.000,11.932,0.000,0.000,24.687
16358,4.179,0.000,3.058,0.000,11.932,0.000,0.000,24.747
16378,4.179,0.000,3.058,0.000,11.932,0.000,0.000,24.677
16398,4.179,0.000,3.058,0.000,11.932,0.000,0.000,24.635
16418,4.179,0.000,3.058,0.000,11.932,0.000,0.000,24.695
16438,4.179,0.000,3.058,0.000,11.932,0.000,0.000,24.744
16458,4.179,0.000,3.058,0.000,11.932,0.000,0.000,24.657
16478,4.179,0.000,3.058,0.000,11.932,0.000,0.000,24.691
16498,4.179,0.000,3.058,0.000,11.932,0.000,0.000,24.638
16518,4.179,0.000,3.058,0.000,11.932,0.000,0.000,24.704
16538,4.178,0.000,3.058,0.000,11.932,0.000,0.000,24.641
16558,4.178,0.000,3.058,0.000,11.932,0.000,0.000,24.629
16578,4.178,0.000,3.058,0.000,11.932,0.000,0.000,24.603
16598,4.178,0.000,3.058,0.000,11.932,0.000,0.000,24.656
16618,4.178,0.000,3.058,0.000,11.932,0.000,0.000,24.612
16638,4.178,0.000,3.058,0.000,11.932,0.000,0.000,24.671
16658,4.178,0.000,3.058,0.000,11.932,0.000,0.000,24.633
16678,4.178,0.000,3.058,0.000,11.932,0.000,0.000,24.599
16698,4.178,0.000,3.058,0.000,11.932,0.000,0.000,24.612
16718,4.178,0.000,3.058,0.000,11.932,0.000,0.000,24.620
16738,4.178,0.000,3.058,0.000,11.932,0.000,0.000,24.644
16758,4.178,0.000,3.058,0.000,11.932,0.000,0.000,24.600
16778,4.178,0.000,3.058,0.000,11.932,0.000,0.000,24.642
16798,4.178,0.000,3.058,0.000,11.932,0.000,0.000,24.585
16818,4.178,0.000,3.058,0.000,11.932,0.000,0.000,24.578
16838,4.178,0.000,3.058,0.000,11.932,0.000,0.000,24.616
16858,4.178,0.000,3.058,0.000,11.932,0.000,0.000,24.593
16878,4.178,0.000,3.058,0.000,11.932,0.000,0.000,24.572
16898,4.178,0.000,3.058,0.000,11.932,0.000,0.000,24.548
16917,3.563,-9.600,3.058,0.008,11.932,0.029,-0.009,24.584
16937,3.479,-9.599,3.058,0.061,11.932,0.216,-0.002,25.646
16957,3.447,-9.599,3.058,0.115,11.932,0.400,-0.001,27.171
16977,3.425,-9.599,3.058,0.168,11.932,0.584,-0.001,28.725
16997,3.405,-9.599,3.058,0.221,11.932,0.766,-0.001,30.351
17017,3.386,-9.598,3.058,0.275,11.932,0.947,-0.001,31.820
17037,3.368,-9.599,3.058,0.328,11.932,1.127,-0.001,33.054
17057,3.350,-9.599,3.058,0.381,11.932,1.306,-0.001,34.148
17077,3.332,-9.599,3.058,0.435,11.932,1.484,-0.001,35.252
17097,3.314,-9.599,3.058,0.488,11.932,1.661,-0.001,36.199
17117,3.295,-9.599,3.058,0.541,11.932,1.838,-0.001,37.133
17137,3.276,-9.599,3.058,0.595,11.932,2.013,-0.001,38.011
17157,3.257,-9.599,3.058,0.648,11.932,2.187,-0.001,38.717
17177,3.238,-9.599,3.058,0.701,11.932,2.360,-0.001,39.700
17197,3.218,-9.598,3.058,0.755,11.932,2.532,-0.001,40.396
17217,3.200,-9.599,3.058,0.808,11.932,2.703,-0.001,41.013
17237,3.181,-9.599,3.058,0.861,11.932,2.874,-0.001,41.896
17257,3.162,-9.599,3.058,0.915,11.932,3.043,-0.001,42.449
17277,3.144,-9.599,3.058,0.968,11.932,3.211,-0.001,43.097
17297,3.126,-9.599,3.058,1.021,11.932,3.378,-0.001,43.514
17317,3.108,-9.600,3.058,1.075,11.932,3.544,-0.001,44.179
17337,3.091,-9.599,3.058,1.128,11.932,3.710,-0.001,44.874
17357,3.075,-9.599,3.058,1.181,11.932,3.874,-0.001,45.499
17377,3.058,-9.599,3.058,1.235,11.932,4.038,-0.001,46.016
17397,3.042,-9.600,3.058,1.288,11.932,4.200,-0.001,46.415
17417,3.025,-9.600,3.058,1.341,11.932,4.362,-0.001,46.878
17437,3.009,-9.600,3.058,1.395,11.932,4.523,-0.001,47.574
17457,2.993,-9.600,3.058,1.448,11.932,4.683,-0.001,48.102
17477,2.976,-9.600,3.058,1.501,11.932,4.842,-0.001,48.598
17497,2.960,-9.600,3.058,1.555,11.932,5.000,-0.001,49.051
17517,2.944,-9.600,3.058,1.608,11.932,5.158,-0.001,49.442
17537,2.926,-9.600,3.058,1.661,11.932,5.314,-0.001,49.797
17557,2.909,-9.600,3.058,1.715,11.932,5.470,-0.001,50.458
17577,2.891,-9.601,3.058,1.768,11.932,5.625,-0.001,50.621
17597,2.874,-9.601,3.058,1.821,11.932,5.779,-0.001,51.056
17617,2.855,-9.601,3.058,1.875,11.932,5.931,-0.001,51.800
17637,2.836,-9.601,3.058,1.928,11.932,6.083,-0.001,52.016
17657,2.817,-9.601,3.058,1.981,11.932,6.234,-0.001,52.426
17677,2.797,-9.601,3.058,2.035,11.932,6.384,-0.001,52.941
17697,2.776,-9.601,3.058,2.088,11.932,6.532,-0.001,53.301
17717,2.756,-9.602,3.058,2.141,11.932,6.680,-0.001,53.868
17737,2.734,-9.602,3.058,2.195,11.932,6.826,-0.001,54.461
17757,2.713,-9.602,3.058,2.248,11.932,6.971,-0.001,54.748
17777,2.691,-9.602,3.058,2.301,11.932,7.116,-0.001,55.404
17797,2.668,-9.603,3.058,2.355,11.932,7.259,-0.001,55.948
17817,2.645,-9.602,3.058,2.408,11.932,7.400,-0.001,56.512
17837,2.622,-9.602,3.058,2.461,11.932,7.541,-0.001,56.859
17857,2.597,-9.602,3.058,2.515,11.932,7.680,-0.001,57.609
17877,2.572,-9.603,3.058,2.568,11.932,7.818,-0.001,58.050
17897,2.546,-9.603,3.058,2.621,11.932,7.954,-0.001,58.598
17917,2.519,-9.603,3.058,2.675,11.932,8.089,-0.001,59.014
17937,3.216,0.000,3.058,2.711,11.932,8.182,0.013,59.840
17942,3.262,0.000,3.058,2.711,11.932,8.182,0.008,59.946