File: data/T25/3C/4.csv
time_s,voltage_v,current_a,chargecapacity_ah,dischargecapacity_ah,charge_energy_wh,discharge_energy_wh,voltagedot_v_per_s,temp_degc
1,2.992,0.000,0.000,0.000,0.000,0.000,0.000,24.412
22,2.992,0.000,0.000,0.000,0.000,0.000,0.000,24.492
43,2.992,0.000,0.000,0.000,0.000,0.000,0.000,24.468
63,3.219,1.625,0.001,0.000,0.004,0.000,0.006,24.472
84,3.285,1.625,0.011,0.000,0.035,0.000,0.002,24.473
105,3.331,1.625,0.020,0.000,0.067,0.000,0.002,24.511
126,3.368,1.625,0.030,0.000,0.098,0.000,0.002,24.566
147,3.399,1.625,0.039,0.000,0.130,0.000,0.001,24.584
168,3.425,1.625,0.049,0.000,0.163,0.000,0.001,24.625
189,3.449,1.625,0.058,0.000,0.195,0.000,0.001,24.655
210,3.470,1.625,0.068,0.000,0.228,0.000,0.001,24.745
231,3.488,1.625,0.077,0.000,0.261,0.000,0.001,24.801
252,3.505,1.625,0.087,0.000,0.294,0.000,0.001,24.814
273,3.520,1.625,0.096,0.000,0.328,0.000,0.001,24.863
294,3.533,1.625,0.106,0.000,0.361,0.000,0.000,24.893
315,3.543,1.625,0.115,0.000,0.395,0.000,0.000,24.925
336,3.550,1.625,0.125,0.000,0.428,0.000,0.000,24.986
357,3.553,1.625,0.134,0.000,0.462,0.000,0.000,25.033
378,3.556,1.625,0.144,0.000,0.496,0.000,0.000,25.130
399,3.557,1.625,0.153,0.000,0.529,0.000,0.000,25.219
420,3.558,1.625,0.163,0.000,0.563,0.000,0.000,25.269
441,3.559,1.625,0.172,0.000,0.597,0.000,0.000,25.361
462,3.561,1.625,0.181,0.000,0.630,0.000,0.000,25.454
483,3.562,1.625,0.191,0.000,0.664,0.000,0.000,25.492
504,3.563,1.625,0.200,0.000,0.698,0.000,0.000,25.551
525,3.565,1.625,0.210,0.000,0.732,0.000,0.000,25.637
546,3.567,1.625,0.219,0.000,0.766,0.000,0.000,25.652
567,3.569,1.625,0.229,0.000,0.799,0.000,0.000,25.753
588,3.571,1.625,0.238,0.000,0.833,0.000,0.000,25.779
609,3.573,1.625,0.248,0.000,0.867,0.000,0.000,25.826
630,3.575,1.625,0.257,0.000,0.901,0.000,0.000,25.915
651,3.577,1.625,0.267,0.000,0.935,0.000,0.000,25.919
672,3.579,1.625,0.276,0.000,0.969,0.000,0.000,25.975
693,3.581,1.625,0.286,0.000,1.003,0.000,0.000,25.986
714,3.583,1.625,0.295,0.000,1.037,0.000,0.000,26.064
735,3.585,1.625,0.305,0.000,1.071,0.000,0.000,26.041
756,3.587,1.625,0.314,0.000,1.105,0.000,0.000,26.095
777,3.589,1.625,0.324,0.000,1.139,0.000,0.000,26.087
798,3.591,1.625,0.333,0.000,1.173,0.000,0.000,26.134
819,3.593,1.625,0.343,0.000,1.207,0.000,0.000,26.181
840,3.596,1.625,0.352,0.000,1.241,0.000,0.000,26.226
861,3.598,1.625,0.362,0.000,1.275,0.000,0.000,26.231
882,3.600,1.625,0.371,0.000,1.309,0.000,0.000,26.218
903,3.602,1.625,0.381,0.000,1.343,0.000,0.000,26.243
924,3.604,1.625,0.390,0.000,1.377,0.000,0.000,26.284
945,3.606,1.625,0.400,0.000,1.412,0.000,0.000,26.307
966,3.609,1.625,0.409,0.000,1.446,0.000,0.000,26.261
987,3.611,1.625,0.419,0.000,1.480,0.000,0.000,26.342
1008,3.613,1.625,0.428,0.000,1.514,0.000,0.000,26.338
1029,3.615,1.625,0.437,0.000,1.549,0.000,0.000,26.332
1050,3.618,1.625,0.447,0.000,1.583,0.000,0.000,26.404
1071,3.620,1.625,0.456,0.000,1.617,0.000,0.000,26.352
1092,3.622,1.625,0.466,0.000,1.651,0.000,0.000,26.369
1113,3.625,1.625,0.475,0.000,1.686,0.000,0.000,26.346
1134,3.627,1.625,0.485,0.000,1.720,0.000,0.000,26.365
1155,3.629,1.625,0.494,0.000,1.755,0.000,0.000,26.385
1176,3.632,1.625,0.504,0.000,1.789,0.000,0.000,26.352
1197,3.634,1.625,0.513,0.000,1.823,0.000,0.000,26.379
1218,3.636,1.625,0.523,0.000,1.858,0.000,0.000,26.383
1239,3.639,1.625,0.532,0.000,1.892,0.000,0.000,26.388
1260,3.641,1.625,0.542,0.000,1.927,0.000,0.000,26.386
1281,3.643,1.625,0.551,0.000,1.961,0.000,0.000,26.399
1302,3.645,1.625,0.561,0.000,1.996,0.000,0.000,26.343
1323,3.647,1.625,0.570,0.000,2.031,0.000,0.000,26.361
1344,3.648,1.625,0.580,0.000,2.065,0.000,0.000,26.353
1365,3.650,1.625,0.589,0.000,2.100,0.000,0.000,26.320
1386,3.652,1.625,0.599,0.000,2.134,0.000,0.000,26.360
1407,3.654,1.625,0.608,0.000,2.169,0.000,0.000,26.308
1428,3.656,1.625,0.618,0.000,2.204,0.000,0.000,26.342
1449,3.657,1.625,0.627,0.000,2.238,0.000,0.000,26.343
1470,3.659,1.625,0.637,0.000,2.273,0.000,0.000,26.328
1491,3.660,1.625,0.646,0.000,2.308,0.000,0.000,26.314
1512,3.662,1.625,0.656,0.000,2.342,0.000,0.000,26.362
1533,3.664,1.625,0.665,0.000,2.377,0.000,0.000,26.308
1554,3.665,1.625,0.674,0.000,2.412,0.000,0.000,26.295
1575,3.666,1.625,0.684,0.000,2.447,0.000,0.000,26.345
1596,3.668,1.625,0.693,0.000,2.481,0.000,0.000,26.342
1617,3.669,1.625,0.703,0.000,2.516,0.000,0.000,26.344
1638,3.670,1.625,0.712,0.000,2.551,0.000,0.000,26.307
1659,3.672,1.625,0.722,0.000,2.586,0.000,0.000,26.325
1680,3.673,1.625,0.731,0.000,2.621,0.000,0.000,26.325
1701,3.675,1.625,0.741,0.000,2.655,0.000,0.000,26.333
1722,3.676,1.625,0.750,0.000,2.690,0.000,0.000,26.352
1743,3.678,1.625,0.760,0.000,2.725,0.000,0.000,26.351
1764,3.679,1.625,0.769,0.000,2.760,0.000,0.000,26.304
1785,3.681,1.625,0.779,0.000,2.795,0.000,0.000,26.335
1806,3.682,1.625,0.788,0.000,2.830,0.000,0.000,26.321
1827,3.684,1.625,0.798,0.000,2.865,0.000,0.000,26.325
1848,3.686,1.625,0.807,0.000,2.900,0.000,0.000,26.321
1869,3.688,1.625,0.817,0.000,2.935,0.000,0.000,26.347
1890,3.689,1.625,0.826,0.000,2.970,0.000,0.000,26.381
1911,3.691,1.625,0.836,0.000,3.005,0.000,0.000,26.344
1932,3.692,1.625,0.845,0.000,3.040,0.000,0.000,26.332
1953,3.694,1.625,0.855,0.000,3.075,0.000,0.000,26.330
1974,3.696,1.625,0.864,0.000,3.110,0.000,0.000,26.352
1995,3.697,1.625,0.874,0.000,3.145,0.000,0.000,26.381
2016,3.699,1.625,0.883,0.000,3.180,0.000,0.000,26.342
2037,3.701,1.625,0.893,0.000,3.215,0.000,0.000,26.321
2058,3.703,1.625,0.902,0.000,3.250,0.000,0.000,26.360
2079,3.704,1.625,0.911,0.000,3.285,0.000,0.000,26.346
2100,3.706,1.625,0.921,0.000,3.320,0.000,0.000,26.316
2121,3.708,1.625,0.930,0.000,3.355,0.000,0.000,26.374
2142,3.710,1.625,0.940,0.000,3.390,0.000,0.000,26.377
2163,3.711,1.625,0.949,0.000,3.426,0.000,0.000,26.392
2184,3.713,1.625,0.959,0.000,3.461,0.000,0.000,26.331
2205,3.715,1.625,0.968,0.000,3.496,0.000,0.000,26.356
2226,3.716,1.625,0.978,0.000,3.531,0.000,0.000,26.363
2247,3.720,1.625,0.987,0.000,3.566,0.000,0.000,26.358
2268,3.719,1.625,0.997,0.000,3.602,0.000,0.000,26.372
2289,3.720,1.625,1.006,0.000,3.637,0.000,0.000,26.412
2310,3.722,1.625,1.016,0.000,3.672,0.000,0.000,26.400
2331,3.723,1.625,1.025,0.000,3.708,0.000,0.000,26.429
2352,3.725,1.625,1.035,0.000,3.743,0.000,0.000,26.426
2373,3.727,1.625,1.044,0.000,3.778,0.000,0.000,26.431
2394,3.728,1.625,1.054,0.000,3.814,0.000,0.000,26.413
2415,3.730,1.625,1.063,0.000,3.849,0.000,0.000,26.399
2436,3.732,1.625,1.073,0.000,3.884,0.000,0.000,26.389
2457,3.734,1.625,1.082,0.000,3.920,0.000,0.000,26.398
2478,3.735,1.625,1.092,0.000,3.955,0.000,0.000,26.421
2499,3.737,1.625,1.101,0.000,3.990,0.000,0.000,26.498
2520,3.739,1.625,1.111,0.000,4.026,0.000,0.000,26.546
2541,3.744,1.625,1.120,0.000,4.061,0.000,0.000,26.696
2562,3.745,1.625,1.130,0.000,4.097,0.000,0.000,26.792
2583,3.745,1.625,1.139,0.000,4.132,0.000,0.001,26.855
2604,3.747,1.625,1.149,0.000,4.168,0.000,-0.001,26.852
2625,3.747,1.625,1.158,0.000,4.203,0.000,0.000,26.772
2646,3.747,1.625,1.167,0.000,4.239,0.000,0.000,26.801
2667,3.749,1.625,1.177,0.000,4.274,0.000,0.000,26.852
2688,3.753,1.625,1.186,0.000,4.310,0.000,0.000,26.815
2709,3.753,1.625,1.196,0.000,4.346,0.000,0.000,26.793
2730,3.755,1.625,1.205,0.000,4.381,0.000,0.000,26.767
2751,3.757,1.625,1.215,0.000,4.417,0.000,0.000,26.733
2772,3.758,1.625,1.224,0.000,4.452,0.000,0.000,26.733
2793,3.759,1.625,1.234,0.000,4.488,0.000,0.000,26.678
2814,3.761,1.625,1.243,0.000,4.524,0.000,0.000,26.675
2835,3.762,1.625,1.253,0.000,4.559,0.000,0.000,26.656
2856,3.764,1.625,1.262,0.000,4.595,0.000,0.000,26.680
2877,3.766,1.625,1.272,0.000,4.631,0.000,0.000,26.682
2898,3.768,1.625,1.281,0.000,4.666,0.000,0.000,26.678
2919,3.769,1.625,1.291,0.000,4.702,0.000,0.000,26.669
2940,3.771,1.625,1.300,0.000,4.738,0.000,0.000,26.684
2961,3.773,1.625,1.310,0.000,4.774,0.000,0.000,26.690
2982,3.775,1.625,1.319,0.000,4.809,0.000,0.000,26.693
3003,3.777,1.625,1.329,0.000,4.845,0.000,0.000,26.699
3024,3.778,1.625,1.338,0.000,4.881,0.000,0.000,26.762
3045,3.780,1.625,1.348,0.000,4.917,0.000,0.000,26.717
3066,3.782,1.625,1.357,0.000,4.953,0.000,0.000,26.705
3087,3.784,1.625,1.367,0.000,4.989,0.000,0.000,26.734
3108,3.786,1.625,1.376,0.000,5.024,0.000,0.000,26.681
3129,3.788,1.625,1.386,0.000,5.060,0.000,0.000,26.743
3150,3.790,1.625,1.395,0.000,5.096,0.000,0.000,26.754
3171,3.791,1.625,1.404,0.000,5.132,0.000,0.000,26.784
3192,3.793,1.625,1.414,0.000,5.168,0.000,0.000,26.766
3213,3.795,1.625,1.423,0.000,5.204,0.000,0.000,26.817
3234,3.797,1.625,1.433,0.000,5.240,0.000,0.000,26.778
3255,3.799,1.625,1.442,0.000,5.276,0.000,0.000,26.775
3276,3.801,1.625,1.452,0.000,5.312,0.000,0.000,26.798
3297,3.803,1.625,1.461,0.000,5.348,0.000,0.000,26.818
3318,3.805,1.625,1.471,0.000,5.384,0.000,0.000,26.780
3339,3.807,1.625,1.480,0.000,5.420,0.000,0.000,26.848
3360,3.809,1.625,1.490,0.000,5.457,0.000,0.000,26.849
3381,3.811,1.625,1.499,0.000,5.493,0.000,0.000,26.857
3402,3.813,1.625,1.509,0.000,5.529,0.000,0.000,26.874
3423,3.815,1.625,1.518,0.000,5.565,0.000,0.000,26.891
3444,3.817,1.625,1.528,0.000,5.601,0.000,0.000,26.847
3465,3.820,1.625,1.537,0.000,5.637,0.000,0.000,26.869
3486,3.822,1.625,1.547,0.000,5.674,0.000,0.000,26.895
3507,3.824,1.625,1.556,0.000,5.710,0.000,0.000,26.857
3528,3.826,1.625,1.566,0.000,5.746,0.000,0.000,26.890
3549,3.829,1.625,1.575,0.000,5.782,0.000,0.000,26.886
3570,3.831,1.625,1.585,0.000,5.819,0.000,0.000,26.873
3591,3.836,1.625,1.594,0.000,5.855,0.000,0.000,26.918
3612,3.837,1.625,1.604,0.000,5.891,0.000,0.000,26.915
3633,3.839,1.625,1.613,0.000,5.928,0.000,0.000,26.886
3654,3.842,1.625,1.623,0.000,5.964,0.000,0.000,26.914
3675,3.845,1.625,1.632,0.000,6.001,0.000,0.000,26.975
3696,3.847,1.625,1.641,0.000,6.037,0.000,0.000,26.914
3717,3.849,1.625,1.651,0.000,6.074,0.000,0.000,26.927
3738,3.851,1.625,1.660,0.000,6.110,0.000,0.000,26.917
3759,3.853,1.625,1.670,0.000,6.147,0.000,0.000,26.937
3780,3.856,1.625,1.679,0.000,6.183,0.000,0.000,26.954
3801,3.858,1.625,1.689,0.000,6.220,0.000,0.000,26.975
3822,3.861,1.625,1.698,0.000,6.256,0.000,0.001,26.999
3843,3.863,1.625,1.708,0.000,6.293,0.000,0.000,26.964
3864,3.866,1.625,1.717,0.000,6.330,0.000,0.000,26.967
3885,3.869,1.625,1.727,0.000,6.366,0.000,0.000,26.983
3906,3.872,1.625,1.736,0.000,6.403,0.000,0.000,26.941
3927,3.874,1.625,1.746,0.000,6.440,0.000,0.000,26.988
3948,3.877,1.625,1.755,0.000,6.476,0.000,0.000,26.968
3969,3.880,1.625,1.765,0.000,6.513,0.000,0.000,27.001
3990,3.882,1.625,1.774,0.000,6.550,0.000,0.000,26.998
4011,3.885,1.625,1.784,0.000,6.587,0.000,0.000,26.974
4032,3.888,1.625,1.793,0.000,6.624,0.000,0.000,27.027
4053,3.891,1.625,1.803,0.000,6.660,0.000,0.000,27.000
4074,3.893,1.625,1.812,0.000,6.697,0.000,0.000,26.984
4095,3.896,1.625,1.822,0.000,6.734,0.000,0.000,26.998
4116,3.899,1.625,1.831,0.000,6.771,0.000,0.000,26.979
4137,3.902,1.625,1.841,0.000,6.808,0.000,0.000,27.012
4158,3.904,1.625,1.850,0.000,6.845,0.000,0.000,26.999
4179,3.907,1.625,1.860,0.000,6.882,0.000,0.000,27.021
4200,3.909,1.625,1.869,0.000,6.919,0.000,0.000,26.995
4221,3.912,1.625,1.879,0.000,6.956,0.000,0.000,26.965
4242,3.915,1.625,1.888,0.000,6.993,0.000,0.000,27.000
4263,3.918,1.625,1.897,0.000,7.031,0.000,0.000,26.977
4284,3.920,1.625,1.907,0.000,7.068,0.000,0.000,27.013
4305,3.923,1.625,1.916,0.000,7.105,0.000,0.000,27.037
4326,3.926,1.625,1.926,0.000,7.142,0.000,0.000,26.993
4347,3.928,1.625,1.935,0.000,7.179,0.000,0.000,26.974
4368,3.931,1.625,1.945,0.000,7.217,0.000,0.000,26.995
4389,3.934,1.625,1.954,0.000,7.254,0.000,0.000,27.007
4410,3.937,1.625,1.964,0.000,7.291,0.000,0.000,27.024
4431,3.940,1.625,1.973,0.000,7.329,0.000,0.000,27.012
4452,3.942,1.625,1.983,0.000,7.366,0.000,0.000,27.020
4473,3.945,1.625,1.992,0.000,7.403,0.000,0.000,27.017
4494,3.948,1.625,2.002,0.000,7.441,0.000,0.000,26.975
4515,3.951,1.625,2.011,0.000,7.478,0.000,0.000,27.068
4536,3.953,1.625,2.021,0.000,7.516,0.000,0.000,27.022
4557,3.956,1.625,2.030,0.000,7.553,0.000,0.000,27.000
4578,3.959,1.625,2.040,0.000,7.591,0.000,0.001,27.013
4599,3.962,1.625,2.049,0.000,7.628,0.000,0.000,27.015
4620,3.964,1.625,2.059,0.000,7.666,0.000,0.000,27.008
4641,3.967,1.625,2.068,0.000,7.703,0.000,0.000,27.023
4662,3.970,1.625,2.078,0.000,7.741,0.000,0.000,26.978
4683,3.973,1.625,2.087,0.000,7.779,0.000,0.000,27.022
4704,3.975,1.625,2.097,0.000,7.816,0.000,0.000,27.005
4725,3.978,1.625,2.106,0.000,7.854,0.000,0.000,26.975
4746,3.981,1.625,2.116,0.000,7.892,0.000,0.000,27.021
4767,3.984,1.625,2.125,0.000,7.929,0.000,0.000,26.944
4788,3.986,1.625,2.134,0.000,7.967,0.000,0.000,27.041
4809,3.989,1.625,2.144,0.000,8.005,0.000,0.000,27.039
4830,3.992,1.625,2.153,0.000,8.043,0.000,0.000,26.988
4851,3.995,1.625,2.163,0.000,8.081,0.000,0.000,27.016
4872,3.997,1.625,2.172,0.000,8.119,0.000,0.000,27.006
4893,4.000,1.625,2.182,0.000,8.157,0.000,0.000,26.994
4914,4.003,1.625,2.191,0.000,8.194,0.000,0.000,27.004
4935,4.006,1.625,2.201,0.000,8.232,0.000,0.000,26.996
4956,4.008,1.625,2.210,0.000,8.270,0.000,0.000,27.007
4977,4.011,1.625,2.220,0.000,8.308,0.000,0.000,26.966
4998,4.014,1.625,2.229,0.000,8.346,0.000,0.000,27.013
5019,4.017,1.625,2.239,0.000,8.385,0.000,0.000,27.024
5040,4.019,1.625,2.248,0.000,8.423,0.000,0.000,27.006
5061,4.022,1.625,2.258,0.000,8.461,0.000,0.000,27.018
5082,4.025,1.625,2.267,0.000,8.499,0.000,0.000,27.036
5103,4.028,1.625,2.277,0.000,8.537,0.000,0.000,26.989
5124,4.030,1.625,2.286,0.000,8.575,0.000,0.000,26.916
5145,4.033,1.625,2.296,0.000,8.613,0.000,0.000,27.002
5166,4.036,1.625,2.305,0.000,8.652,0.000,0.000,26.972
5187,4.039,1.625,2.315,0.000,8.690,0.000,0.000,27.013
5208,4.041,1.625,2.324,0.000,8.728,0.000,0.000,26.982
5229,4.044,1.625,2.334,0.000,8.767,0.000,0.000,26.987
5250,4.047,1.625,2.343,0.000,8.805,0.000,0.000,26.981
5271,4.049,1.625,2.353,0.000,8.843,0.000,0.000,26.960
5292,4.052,1.625,2.362,0.000,8.882,0.000,0.000,26.935
5313,4.055,1.625,2.372,0.000,8.920,0.000,0.000,27.013
5334,4.057,1.625,2.381,0.000,8.959,0.000,0.000,26.966
5355,4.060,1.625,2.390,0.000,8.997,0.000,0.000,26.950
5376,4.063,1.625,2.400,0.000,9.036,0.000,0.000,26.954
5397,4.066,1.625,2.409,0.000,9.074,0.000,0.000,26.919
5418,4.069,1.625,2.419,0.000,9.113,0.000,0.000,26.952
5439,4.072,1.625,2.428,0.000,9.151,0.000,0.000,26.949
5460,4.074,1.625,2.438,0.000,9.190,0.000,0.000,26.985
5481,4.077,1.625,2.447,0.000,9.229,0.000,0.000,26.909
5502,4.080,1.625,2.457,0.000,9.267,0.000,0.000,26.962
5523,4.083,1.625,2.466,0.000,9.306,0.000,0.000,26.957
5544,4.086,1.625,2.476,0.000,9.345,0.000,0.000,26.960
5565,4.089,1.625,2.485,0.000,9.383,0.000,0.000,26.924
5586,4.092,1.625,2.495,0.000,9.422,0.000,0.000,26.928
5607,4.095,1.625,2.504,0.000,9.461,0.000,0.000,26.905
5628,4.098,1.625,2.514,0.000,9.500,0.000,0.000,26.947
5649,4.101,1.625,2.523,0.000,9.539,0.000,0.000,26.933
5670,4.104,1.625,2.533,0.000,9.578,0.000,0.000,26.956
5691,4.107,1.625,2.542,0.000,9.617,0.000,0.000,26.950
5712,4.111,1.625,2.552,0.000,9.656,0.000,0.000,26.913
5733,4.114,1.625,2.561,0.000,9.695,0.000,0.000,26.910
5754,4.117,1.625,2.571,0.000,9.734,0.000,0.000,26.941
5775,4.120,1.625,2.580,0.000,9.773,0.000,0.000,26.873
5796,4.123,1.625,2.590,0.000,9.812,0.000,0.000,26.921
5817,4.127,1.625,2.599,0.000,9.851,0.000,0.000,26.912
5838,4.130,1.625,2.609,0.000,9.890,0.000,0.000,26.929
5859,4.133,1.625,2.618,0.000,9.929,0.000,0.000,26.879
5880,4.137,1.625,2.627,0.000,9.968,0.000,0.000,26.894
5901,4.140,1.625,2.637,0.000,10.008,0.000,0.000,26.928
5922,4.143,1.625,2.646,0.000,10.047,0.000,0.000,26.926
5943,4.147,1.625,2.656,0.000,10.086,0.000,0.000,26.902
5964,4.150,1.625,2.665,0.000,10.125,0.000,0.000,26.944
5985,4.154,1.625,2.675,0.000,10.165,0.000,0.000,26.921
6006,4.157,1.625,2.684,0.000,10.204,0.000,0.000,26.959
6027,4.161,1.625,2.694,0.000,10.244,0.000,0.000,26.854
6048,4.164,1.625,2.703,0.000,10.283,0.000,0.000,26.848
6069,4.168,1.625,2.713,0.000,10.323,0.000,0.000,26.915
6090,4.172,1.625,2.722,0.000,10.362,0.000,0.000,26.885
6111,4.175,1.625,2.732,0.000,10.402,0.000,0.000,26.933
6132,4.178,1.625,2.741,0.000,10.441,0.000,0.000,26.866
6153,4.182,1.625,2.751,0.000,10.481,0.000,0.000,26.907
6174,4.185,1.625,2.760,0.000,10.521,0.000,0.000,26.883
6195,4.189,1.625,2.770,0.000,10.560,0.000,0.000,26.903
6216,4.192,1.625,2.779,0.000,10.600,0.000,0.000,26.896
6237,4.196,1.625,2.789,0.000,10.640,0.000,0.000,26.885
6258,4.199,1.625,2.798,0.000,10.680,0.000,0.000,26.879
6279,4.200,1.591,2.808,0.000,10.719,0.000,0.000,26.955
6300,4.200,1.550,2.817,0.000,10.757,0.000,0.000,26.920
6321,4.200,1.513,2.826,0.000,10.795,0.000,0.000,26.878
6342,4.200,1.481,2.834,0.000,10.832,0.000,0.000,26.884
6363,4.200,1.449,2.843,0.000,10.867,0.000,0.000,26.844
6384,4.200,1.417,2.851,0.000,10.903,0.000,0.000,26.828
6405,4.200,1.388,2.859,0.000,10.937,0.000,0.000,26.836
6426,4.200,1.358,2.867,0.000,10.971,0.000,0.000,26.817
6447,4.200,1.329,2.875,0.000,11.003,0.000,0.000,26.781
6468,4.200,1.300,2.883,0.000,11.036,0.000,0.000,26.748
6489,4.200,1.273,2.890,0.000,11.067,0.000,0.000,26.708
6510,4.200,1.246,2.898,0.000,11.098,0.000,0.000,26.691
6531,4.200,1.221,2.905,0.000,11.128,0.000,0.000,26.664
6552,4.200,1.196,2.912,0.000,11.158,0.000,0.000,26.654
6573,4.200,1.173,2.919,0.000,11.187,0.000,0.000,26.617
6594,4.200,1.150,2.926,0.000,11.215,0.000,0.000,26.590
6615,4.200,1.126,2.932,0.000,11.243,0.000,0.000,26.583
6636,4.200,1.104,2.939,0.000,11.271,0.000,0.000,26.472
6657,4.200,1.083,2.945,0.000,11.297,0.000,0.000,26.514
6678,4.200,1.063,2.951,0.000,11.324,0.000,0.000,26.449
6699,4.200,1.043,2.958,0.000,11.349,0.000,0.000,26.401
6720,4.200,1.025,2.964,0.000,11.375,0.000,0.000,26.351
6741,4.200,1.007,2.970,0.000,11.400,0.000,0.000,26.356
6762,4.200,0.989,2.975,0.000,11.424,0.000,0.000,26.348
6783,4.200,0.971,2.981,0.000,11.448,0.000,0.000,26.304
6804,4.200,0.953,2.987,0.000,11.472,0.000,0.000,26.248
6825,4.200,0.937,2.992,0.000,11.495,0.000,0.000,26.220
6846,4.200,0.921,2.998,0.000,11.517,0.000,0.000,26.191
6867,4.200,0.905,3.003,0.000,11.540,0.000,0.000,26.183
6888,4.200,0.890,3.008,0.000,11.562,0.000,0.000,26.151
6909,4.200,0.875,3.013,0.000,11.583,0.000,0.000,26.137
6930,4.200,0.859,3.018,0.000,11.605,0.000,0.000,26.080
6951,4.200,0.845,3.023,0.000,11.626,0.000,0.000,26.064
6972,4.200,0.833,3.028,0.000,11.646,0.000,0.000,26.056
6993,4.200,0.819,3.033,0.000,11.666,0.000,0.000,25.999
7014,4.200,0.805,3.038,0.000,11.686,0.000,0.000,26.011
7035,4.200,0.794,3.042,0.000,11.706,0.000,0.000,25.939
7056,4.200,0.782,3.047,0.000,11.725,0.000,0.000,25.931
7077,4.200,0.770,3.052,0.000,11.744,0.000,0.000,25.910
7098,4.200,0.759,3.056,0.000,11.763,0.000,0.000,25.904
7119,4.200,0.747,3.060,0.000,11.781,0.000,0.000,25.828
7140,4.200,0.737,3.065,0.000,11.799,0.000,0.000,25.825
7161,4.200,0.726,3.069,0.000,11.817,0.000,0.000,25.820
7182,4.200,0.717,3.073,0.000,11.835,0.000,0.000,25.757
7203,4.200,0.707,3.077,0.000,11.852,0.000,0.000,25.787
7224,4.200,0.696,3.081,0.000,11.870,0.000,0.000,25.714
7245,4.200,0.688,3.086,0.000,11.887,0.000,0.000,25.722
7266,4.200,0.678,3.090,0.000,11.903,0.000,0.000,25.717
7287,4.200,0.671,3.093,0.000,11.920,0.000,0.000,25.701
7308,4.200,0.662,3.097,0.000,11.936,0.000,0.000,25.662
7329,4.200,0.653,3.101,0.000,11.952,0.000,0.000,25.655
7350,4.200,0.646,3.105,0.000,11.968,0.000,0.000,25.627
7371,4.200,0.637,3.109,0.000,11.984,0.000,0.000,25.593
7392,4.200,0.630,3.112,0.000,11.999,0.000,0.000,25.548
7413,4.200,0.622,3.116,0.000,12.015,0.000,0.000,25.574
7434,4.200,0.615,3.120,0.000,12.030,0.000,0.000,25.541
7455,4.200,0.607,3.123,0.000,12.045,0.000,0.000,25.525
7476,4.200,0.600,3.127,0.000,12.060,0.000,0.000,25.533
7497,4.200,0.592,3.130,0.000,12.074,0.000,0.000,25.543
7518,4.200,0.585,3.134,0.000,12.089,0.000,0.000,25.507
7539,4.200,0.579,3.137,0.000,12.103,0.000,0.000,25.456
7560,4.200,0.572,3.140,0.000,12.117,0.000,0.000,25.462
7581,4.200,0.565,3.144,0.000,12.131,0.000,0.000,25.454
7602,4.200,0.558,3.147,0.000,12.145,0.000,0.000,25.398
7623,4.200,0.551,3.150,0.000,12.158,0.000,0.000,25.420
7644,4.200,0.543,3.153,0.000,12.172,0.000,0.000,25.386
7665,4.200,0.538,3.157,0.000,12.185,0.000,0.000,25.417
7686,4.200,0.531,3.160,0.000,12.198,0.000,0.000,25.363
7707,4.200,0.524,3.163,0.000,12.211,0.000,0.000,25.346
7728,4.200,0.517,3.166,0.000,12.224,0.000,0.000,25.365
7749,4.200,0.511,3.169,0.000,12.236,0.000,0.000,25.334
7770,4.200,0.504,3.172,0.000,12.249,0.000,0.000,25.332
7791,4.200,0.497,3.175,0.000,12.261,0.000,0.000,25.306
7812,4.200,0.491,3.178,0.000,12.273,0.000,0.000,25.315
7833,4.200,0.484,3.180,0.000,12.285,0.000,0.000,25.297
7854,4.200,0.477,3.183,0.000,12.297,0.000,0.000,25.299
7875,4.200,0.472,3.186,0.000,12.309,0.000,0.000,25.281
7896,4.200,0.465,3.189,0.000,12.320,0.000,0.000,25.250
7917,4.200,0.459,3.191,0.000,12.331,0.000,0.000,25.227
7938,4.200,0.453,3.194,0.000,12.343,0.000,0.000,25.223
7959,4.200,0.447,3.197,0.000,12.354,0.000,0.000,25.190
7980,4.200,0.440,3.199,0.000,12.364,0.000,0.000,25.230
8001,4.200,0.434,3.202,0.000,12.375,0.000,0.000,25.210
8022,4.200,0.428,3.204,0.000,12.386,0.000,0.000,25.169
8043,4.200,0.423,3.207,0.000,12.396,0.000,0.000,25.181
8064,4.200,0.416,3.209,0.000,12.406,0.000,0.000,25.197
8085,4.200,0.411,3.212,0.000,12.417,0.000,0.000,25.146
8106,4.200,0.406,3.214,0.000,12.427,0.000,0.000,25.146
8127,4.200,0.400,3.216,0.000,12.436,0.000,0.000,25.162
8148,4.200,0.394,3.219,0.000,12.446,0.000,0.000,25.117
8169,4.200,0.388,3.221,0.000,12.456,0.000,0.000,25.142
8190,4.200,0.383,3.223,0.000,12.465,0.000,0.000,25.114
8211,4.200,0.377,3.226,0.000,12.474,0.000,0.000,25.104
8232,4.200,0.372,3.228,0.000,12.484,0.000,0.000,25.108
8253,4.200,0.366,3.230,0.000,12.493,0.000,0.000,25.082
8274,4.200,0.360,3.232,0.000,12.502,0.000,0.000,25.109
8295,4.200,0.355,3.234,0.000,12.510,0.000,0.000,25.089
8316,4.200,0.350,3.236,0.000,12.519,0.000,0.000,25.120
8337,4.200,0.345,3.238,0.000,12.528,0.000,0.000,25.070
8358,4.200,0.340,3.240,0.000,12.536,0.000,0.000,25.085
8379,4.200,0.334,3.242,0.000,12.544,0.000,0.000,25.041
8400,4.200,0.330,3.244,0.000,12.552,0.000,0.000,25.081
8421,4.200,0.325,3.246,0.000,12.560,0.000,0.000,25.008
8442,4.200,0.319,3.248,0.000,12.568,0.000,0.000,25.046
8463,4.200,0.315,3.250,0.000,12.576,0.000,0.000,25.022
8484,4.200,0.310,3.251,0.000,12.584,0.000,0.000,25.008
8505,4.200,0.305,3.253,0.000,12.591,0.000,0.000,25.010
8526,4.200,0.300,3.255,0.000,12.599,0.000,0.000,24.973
8547,4.200,0.297,3.257,0.000,12.606,0.000,0.000,24.990
8568,4.200,0.292,3.259,0.000,12.613,0.000,0.000,24.992
8589,4.200,0.288,3.260,0.000,12.620,0.000,0.000,25.016
8610,4.200,0.282,3.262,0.000,12.627,0.000,0.000,24.963
8631,4.200,0.278,3.263,0.000,12.634,0.000,0.000,24.935
8652,4.200,0.274,3.265,0.000,12.641,0.000,0.000,24.945
8673,4.200,0.269,3.267,0.000,12.647,0.000,0.000,24.976
8694,4.200,0.265,3.268,0.000,12.654,0.000,0.000,24.930
8715,4.200,0.261,3.270,0.000,12.660,0.000,0.000,24.929
8736,4.200,0.257,3.271,0.000,12.667,0.000,0.000,24.944
8757,4.200,0.253,3.273,0.000,12.673,0.000,0.000,24.945
8778,4.200,0.249,3.274,0.000,12.679,0.000,0.000,24.953
8799,4.200,0.245,3.276,0.000,12.685,0.000,0.000,24.952
8820,4.200,0.241,3.277,0.000,12.691,0.000,0.000,24.902
8841,4.200,0.237,3.278,0.000,12.697,0.000,0.000,24.902
8862,4.200,0.233,3.280,0.000,12.703,0.000,0.000,24.913
8883,4.200,0.229,3.281,0.000,12.708,0.000,0.000,24.917
8904,4.200,0.226,3.283,0.000,12.714,0.000,0.000,24.861
8925,4.200,0.222,3.284,0.000,12.719,0.000,0.000,24.892
8946,4.200,0.219,3.285,0.000,12.725,0.000,0.000,24.868
8967,4.200,0.216,3.286,0.000,12.730,0.000,0.000,24.864
8988,4.200,0.211,3.288,0.000,12.735,0.000,0.000,24.838
9009,4.200,0.208,3.289,0.000,12.740,0.000,0.000,24.884
9030,4.200,0.204,3.290,0.000,12.746,0.000,0.000,24.856
9051,4.200,0.202,3.291,0.000,12.751,0.000,0.000,24.878
9072,4.200,0.198,3.292,0.000,12.755,0.000,0.000,24.870
9093,4.200,0.195,3.294,0.000,12.760,0.000,0.000,24.861
9114,4.200,0.192,3.295,0.000,12.765,0.000,0.000,24.859
9135,4.200,0.189,3.296,0.000,12.770,0.000,0.000,24.870
9156,4.200,0.186,3.297,0.000,12.774,0.000,0.000,24.843
9177,4.200,0.183,3.298,0.000,12.779,0.000,0.000,24.866
9198,4.200,0.179,3.299,0.000,12.783,0.000,0.000,24.844
9219,4.200,0.177,3.300,0.000,12.788,0.000,0.000,24.882
9240,4.200,0.174,3.301,0.000,12.792,0.000,0.000,24.820
9261,4.200,0.172,3.302,0.000,12.796,0.000,0.000,24.852
9282,4.200,0.168,3.303,0.000,12.800,0.000,0.000,24.873
9303,4.200,0.166,3.304,0.000,12.804,0.000,0.000,24.878
9324,4.200,0.163,3.305,0.000,12.808,0.000,0.000,24.869
9345,4.200,0.161,3.306,0.000,12.812,0.000,0.000,24.816
9366,4.200,0.158,3.307,0.000,12.816,0.000,0.000,24.845
9387,4.200,0.155,3.308,0.000,12.820,0.000,0.000,24.839
9408,4.200,0.153,3.309,0.000,12.824,0.000,0.000,24.841
9429,4.200,0.150,3.310,0.000,12.828,0.000,0.000,24.824
9450,4.200,0.148,3.310,0.000,12.831,0.000,0.000,24.819
9471,4.200,0.145,3.311,0.000,12.835,0.000,0.000,24.833
9492,4.200,0.143,3.312,0.000,12.838,0.000,0.000,24.830
9513,4.200,0.141,3.313,0.000,12.842,0.000,0.000,24.844
9534,4.200,0.139,3.314,0.000,12.845,0.000,0.000,24.836
9555,4.200,0.137,3.315,0.000,12.849,0.000,0.000,24.842
9576,4.200,0.135,3.315,0.000,12.852,0.000,0.000,24.776
9597,4.200,0.132,3.316,0.000,12.855,0.000,0.000,24.828
9618,4.200,0.130,3.317,0.000,12.858,0.000,0.000,24.828
9639,4.200,0.128,3.318,0.000,12.862,0.000,0.000,24.830
9660,4.200,0.126,3.318,0.000,12.865,0.000,0.000,24.842
9681,4.200,0.125,3.319,0.000,12.868,0.000,0.000,24.813
9702,4.200,0.122,3.320,0.000,12.871,0.000,0.000,24.792
9723,4.200,0.120,3.321,0.000,12.874,0.000,0.000,24.850
9744,4.200,0.119,3.321,0.000,12.877,0.000,0.000,24.790
9765,4.200,0.117,3.322,0.000,12.880,0.000,0.000,24.801
9786,4.200,0.115,3.323,0.000,12.882,0.000,0.000,24.839
9807,4.200,0.113,3.323,0.000,12.885,0.000,0.000,24.806
9828,4.200,0.111,3.324,0.000,12.888,0.000,0.000,24.831
9849,4.200,0.110,3.325,0.000,12.891,0.000,0.000,24.796
9870,4.200,0.108,3.325,0.000,12.893,0.000,0.000,24.803
9891,4.200,0.106,3.326,0.000,12.896,0.000,0.000,24.776
9912,4.200,0.105,3.326,0.000,12.899,0.000,0.000,24.823
9933,4.200,0.104,3.327,0.000,12.901,0.000,0.000,24.798
9954,4.200,0.102,3.328,0.000,12.904,0.000,0.000,24.816
9975,4.200,0.099,3.328,0.000,12.906,0.000,0.000,24.844
9996,4.200,0.098,3.329,0.000,12.908,0.000,0.000,24.814
10017,4.200,0.098,3.329,0.000,12.911,0.000,0.000,24.808
10038,4.200,0.096,3.330,0.000,12.913,0.000,0.000,24.808
10059,4.200,0.094,3.331,0.000,12.916,0.000,0.000,24.820
10080,4.200,0.093,3.331,0.000,12.918,0.000,0.000,24.814
10101,4.200,0.091,3.332,0.000,12.920,0.000,0.000,24.795
10122,4.200,0.090,3.332,0.000,12.922,0.000,0.000,24.794
10143,4.200,0.089,3.333,0.000,12.925,0.000,0.000,24.756
10164,4.200,0.088,3.333,0.000,12.927,0.000,0.000,24.788
10185,4.200,0.086,3.334,0.000,12.929,0.000,0.000,24.767
10206,4.200,0.085,3.334,0.000,12.931,0.000,0.000,24.808
10227,4.200,0.084,3.335,0.000,12.933,0.000,0.000,24.755
10248,4.200,0.082,3.335,0.000,12.935,0.000,0.000,24.799
10269,4.200,0.082,3.336,0.000,12.937,0.000,0.000,24.807
10290,4.200,0.080,3.336,0.000,12.939,0.000,0.000,24.776
10311,4.200,0.079,3.337,0.000,12.941,0.000,0.000,24.802
10332,4.200,0.077,3.337,0.000,12.943,0.000,0.000,24.830
10353,4.200,0.076,3.337,0.000,12.945,0.000,0.000,24.813
10374,4.200,0.076,3.338,0.000,12.947,0.000,0.000,24.781
10395,4.200,0.075,3.338,0.000,12.948,0.000,0.000,24.795
10416,4.200,0.073,3.339,0.000,12.950,0.000,0.000,24.836
10437,4.200,0.072,3.339,0.000,12.952,0.000,0.000,24.805
10458,4.200,0.071,3.340,0.000,12.954,0.000,0.000,24.763
10479,4.200,0.070,3.340,0.000,12.956,0.000,0.000,24.829
10500,4.200,0.069,3.340,0.000,12.957,0.000,0.000,24.789
10521,4.200,0.069,3.341,0.000,12.959,0.000,0.000,24.801
10542,4.200,0.068,3.341,0.000,12.961,0.000,0.000,24.818
10563,4.200,0.066,3.342,0.000,12.962,0.000,0.000,24.786
10584,4.200,0.066,3.342,0.000,12.964,0.000,0.000,24.765
10605,4.195,0.000,3.342,0.000,12.965,0.000,0.000,24.771
10626,4.194,0.000,3.342,0.000,12.965,0.000,0.000,24.817
10647,4.194,0.000,3.342,0.000,12.965,0.000,0.000,24.806
10668,4.193,0.000,3.342,0.000,12.965,0.000,0.000,24.784
10689,4.193,0.000,3.342,0.000,12.965,0.000,0.000,24.794
10710,4.192,0.000,3.342,0.000,12.965,0.000,0.000,24.823
10731,4.192,0.000,3.342,0.000,12.965,0.000,0.000,24.779
10752,4.191,0.000,3.342,0.000,12.965,0.000,0.000,24.793
10773,4.191,0.000,3.342,0.000,12.965,0.000,0.000,24.779
10794,4.191,0.000,3.342,0.000,12.965,0.000,0.000,24.817
10815,4.191,0.000,3.342,0.000,12.965,0.000,0.000,24.823
10836,4.190,0.000,3.342,0.000,12.965,0.000,0.000,24.775
10857,4.190,0.000,3.342,0.000,12.965,0.000,0.000,24.803
10878,4.190,0.000,3.342,0.000,12.965,0.000,0.000,24.775
10899,4.190,0.000,3.342,0.000,12.965,0.000,0.000,24.767
10920,4.189,0.000,3.342,0.000,12.965,0.000,0.000,24.776
10941,4.189,0.000,3.342,0.000,12.965,0.000,0.000,24.807
10962,4.189,0.000,3.342,0.000,12.965,0.000,0.000,24.800
10983,4.189,0.000,3.342,0.000,12.965,0.000,0.000,24.775
11004,4.189,0.000,3.342,0.000,12.965,0.000,0.000,24.812
11025,4.189,0.000,3.342,0.000,12.965,0.000,0.000,24.762
11046,4.188,0.000,3.342,0.000,12.965,0.000,0.000,24.811
11067,4.188,0.000,3.342,0.000,12.965,0.000,0.000,24.790
11088,4.188,0.000,3.342,0.000,12.965,0.000,0.000,24.819
11109,4.188,0.000,3.342,0.000,12.965,0.000,0.000,24.837
11130,4.188,0.000,3.342,0.000,12.965,0.000,0.000,24.827
11151,4.187,0.000,3.342,0.000,12.965,0.000,0.000,24.778
11172,4.187,0.000,3.342,0.000,12.965,0.000,0.000,24.811
11193,4.187,0.000,3.342,0.000,12.965,0.000,0.000,24.805
11214,4.187,0.000,3.342,0.000,12.965,0.000,0.000,24.790
11235,4.187,0.000,3.342,0.000,12.965,0.000,0.000,24.781
11256,4.187,0.000,3.342,0.000,12.965,0.000,0.000,24.808
11277,4.186,0.000,3.342,0.000,12.965,0.000,0.000,24.750
11298,4.186,0.000,3.342,0.000,12.965,0.000,0.000,24.782
11319,4.186,0.000,3.342,0.000,12.965,0.000,0.000,24.814
11340,4.186,0.000,3.342,0.000,12.965,0.000,0.000,24.814
11361,4.186,0.000,3.342,0.000,12.965,0.000,0.000,24.807
11382,4.186,0.000,3.342,0.000,12.965,0.000,0.000,24.805
11403,4.186,0.000,3.342,0.000,12.965,0.000,0.000,24.791
11424,4.186,0.000,3.342,0.000,12.965,0.000,0.000,24.799
11445,4.185,0.000,3.342,0.000,12.965,0.000,0.000,24.805
11466,4.185,0.000,3.342,0.000,12.965,0.000,0.000,24.827
11487,4.185,0.000,3.342,0.000,12.965,0.000,0.000,24.806
11508,4.185,0.000,3.342,0.000,12.965,0.000,0.000,24.796
11529,4.185,0.000,3.342,0.000,12.965,0.000,0.000,24.806
11550,4.185,0.000,3.342,0.000,12.965,0.000,0.000,24.828
11571,4.185,0.000,3.342,0.000,12.965,0.000,0.000,24.835
11592,4.185,0.000,3.342,0.000,12.965,0.000,0.000,24.816
11613,4.185,0.000,3.342,0.000,12.965,0.000,0.000,24.823
11634,4.185,0.000,3.342,0.000,12.965,0.000,0.000,24.848
11655,4.184,0.000,3.342,0.000,12.965,0.000,0.000,24.788
11676,4.184,0.000,3.342,0.000,12.965,0.000,0.000,24.827
11697,4.184,0.000,3.342,0.000,12.965,0.000,0.000,24.813
11718,4.184,0.000,3.342,0.000,12.965,0.000,0.000,24.813
11739,4.184,0.000,3.342,0.000,12.965,0.000,0.000,24.821
11760,4.184,0.000,3.342,0.000,12.965,0.000,0.000,24.858
11781,4.184,0.000,3.342,0.000,12.965,0.000,0.000,24.798
11802,4.184,0.000,3.342,0.000,12.965,0.000,0.000,24.849
11823,4.184,0.000,3.342,0.000,12.965,0.000,0.000,24.836
11844,4.183,0.000,3.342,0.000,12.965,0.000,0.000,24.836
11865,4.183,0.000,3.342,0.000,12.965,0.000,0.000,24.829
11886,4.183,0.000,3.342,0.000,12.965,0.000,0.000,24.830
11907,4.183,0.000,3.342,0.000,12.965,0.000,0.000,24.839
11928,4.183,0.000,3.342,0.000,12.965,0.000,0.000,24.834
11949,4.183,0.000,3.342,0.000,12.965,0.000,0.000,24.822
11970,4.183,0.000,3.342,0.000,12.965,0.000,0.000,24.861
11991,4.183,0.000,3.342,0.000,12.965,0.000,0.000,24.828
12012,4.183,0.000,3.342,0.000,12.965,0.000,0.000,24.821
12033,4.183,0.000,3.342,0.000,12.965,0.000,0.000,24.847
12054,4.183,0.000,3.342,0.000,12.965,0.000,0.000,24.827
12075,4.183,0.000,3.342,0.000,12.965,0.000,0.000,24.833
12096,4.182,0.000,3.342,0.000,12.965,0.000,0.000,24.840
12117,4.182,0.000,3.342,0.000,12.965,0.000,0.000,24.822
12138,4.182,0.000,3.342,0.000,12.965,0.000,0.000,24.828
12159,4.182,0.000,3.342,0.000,12.965,0.000,0.000,24.850
12180,4.182,0.000,3.342,0.000,12.965,0.000,0.000,24.802
12201,4.182,0.000,3.342,0.000,12.965,0.000,0.000,24.819
12222,4.182,0.000,3.342,0.000,12.965,0.000,0.000,24.789
12243,4.182,0.000,3.342,0.000,12.965,0.000,0.000,24.835
12264,4.182,0.000,3.342,0.000,12.965,0.000,0.000,24.817
12285,4.182,0.000,3.342,0.000,12.965,0.000,0.000,24.868
12306,4.182,0.000,3.342,0.000,12.965,0.000,0.000,24.828
12327,4.182,0.000,3.342,0.000,12.965,0.000,0.000,24.842
12348,4.182,0.000,3.342,0.000,12.965,0.000,0.000,24.818
12369,4.182,0.000,3.342,0.000,12.965,0.000,0.000,24.814
12390,4.181,0.000,3.342,0.000,12.965,0.000,0.000,24.848
12411,4.181,0.000,3.342,0.000,12.965,0.000,0.000,24.832
12432,4.181,0.000,3.342,0.000,12.965,0.000,0.000,24.821
12453,4.181,0.000,3.342,0.000,12.965,0.000,0.000,24.852
12474,4.181,0.000,3.342,0.000,12.965,0.000,0.000,24.861
12495,4.181,0.000,3.342,0.000,12.965,0.000,0.000,24.875
12516,4.181,0.000,3.342,0.000,12.965,0.000,0.000,24.855
12537,4.181,0.000,3.342,0.000,12.965,0.000,0.000,24.851
12558,4.181,0.000,3.342,0.000,12.965,0.000,0.000,24.857
12579,4.181,0.000,3.342,0.000,12.965,0.000,0.000,24.868
12600,4.181,0.000,3.342,0.000,12.965,0.000,0.000,24.871
12621,4.181,0.000,3.342,0.000,12.965,0.000,0.000,24.845
12642,4.181,0.000,3.342,0.000,12.965,0.000,0.000,24.890
12663,4.181,0.000,3.342,0.000,12.965,0.000,0.000,24.835
12684,4.181,0.000,3.342,0.000,12.965,0.000,0.000,24.810
12705,4.181,0.000,3.342,0.000,12.965,0.000,0.000,24.828
12726,4.181,0.000,3.342,0.000,12.965,0.000,0.000,24.829
12747,4.180,0.000,3.342,0.000,12.965,0.000,0.000,24.821
12768,4.180,0.000,3.342,0.000,12.965,0.000,0.000,24.857
12789,4.180,0.000,3.342,0.000,12.965,0.000,0.000,24.848
12810,4.180,0.000,3.342,0.000,12.965,0.000,0.000,24.817
12831,4.180,0.000,3.342,0.000,12.965,0.000,0.000,24.871
12852,4.180,0.000,3.342,0.000,12.965,0.000,0.000,24.796
12873,4.180,0.000,3.342,0.000,12.965,0.000,0.000,24.875
12894,4.180,0.000,3.342,0.000,12.965,0.000,0.000,24.828
12915,4.180,0.000,3.342,0.000,12.965,0.000,0.000,24.832
12936,4.180,0.000,3.342,0.000,12.965,0.000,0.000,24.868
12957,4.180,0.000,3.342,0.000,12.965,0.000,0.000,24.821
12978,4.180,0.000,3.342,0.000,12.965,0.000,0.000,24.829
12999,4.180,0.000,3.342,0.000,12.965,0.000,0.000,24.834
13020,4.180,0.000,3.342,0.000,12.965,0.000,0.000,24.827
13041,4.180,0.000,3.342,0.000,12.965,0.000,0.000,24.870
13062,4.180,0.000,3.342,0.000,12.965,0.000,0.000,24.863
13083,4.179,0.000,3.342,0.000,12.965,0.000,0.000,24.847
13104,4.179,0.000,3.342,0.000,12.965,0.000,0.000,24.826
13125,4.180,0.000,3.342,0.000,12.965,0.000,0.000,24.833
13146,4.179,0.000,3.342,0.000,12.965,0.000,0.000,24.810
13167,4.179,0.000,3.342,0.000,12.965,0.000,0.000,24.866
13188,4.179,0.000,3.342,0.000,12.965,0.000,0.000,24.873
13209,4.179,0.000,3.342,0.000,12.965,0.000,0.000,24.820
13230,4.179,0.000,3.342,0.000,12.965,0.000,0.000,24.859
13251,4.179,0.000,3.342,0.000,12.965,0.000,0.000,24.832
13272,4.179,0.000,3.342,0.000,12.965,0.000,0.000,24.857
13293,4.179,0.000,3.342,0.000,12.965,0.000,0.000,24.862
13314,4.179,0.000,3.342,0.000,12.965,0.000,0.000,24.858
13335,4.179,0.000,3.342,0.000,12.965,0.000,0.000,24.817
13356,4.179,0.000,3.342,0.000,12.965,0.000,0.000,24.872
13377,4.179,0.000,3.342,0.000,12.965,0.000,0.000,24.890
13398,4.179,0.000,3.342,0.000,12.965,0.000,0.000,24.879
13419,4.179,0.000,3.342,0.000,12.965,0.000,0.000,24.892
13440,4.179,0.000,3.342,0.000,12.965,0.000,0.000,24.894
13461,4.179,0.000,3.342,0.000,12.965,0.000,0.000,24.885
13482,4.179,0.000,3.342,0.000,12.965,0.000,0.000,24.865
13503,4.179,0.000,3.342,0.000,12.965,0.000,0.000,24.818
13524,4.179,0.000,3.342,0.000,12.965,0.000,0.000,24.882
13545,4.179,0.000,3.342,0.000,12.965,0.000,0.000,24.883
13566,4.179,0.000,3.342,0.000,12.965,0.000,0.000,24.874
13587,4.179,0.000,3.342,0.000,12.965,0.000,0.000,24.934
13608,4.178,0.000,3.342,0.000,12.965,0.000,0.000,25.116
13629,4.179,0.000,3.342,0.000,12.965,0.000,0.000,25.245
13650,4.178,0.000,3.342,0.000,12.965,0.000,0.000,25.247
13671,4.178,0.000,3.342,0.000,12.965,0.000,0.000,25.230
13692,4.178,0.000,3.342,0.000,12.965,0.000,0.000,25.149
13713,4.178,0.000,3.342,0.000,12.965,0.000,0.000,25.109
13734,4.178,0.000,3.342,0.000,12.965,0.000,0.000,25.029
13755,4.178,0.000,3.342,0.000,12.965,0.000,0.000,25.029
13776,4.178,0.000,3.342,0.000,12.965,0.000,0.000,24.989
13797,4.178,0.000,3.342,0.000,12.965,0.000,0.000,25.021
13818,4.178,0.000,3.342,0.000,12.965,0.000,0.000,25.000
13839,4.178,0.000,3.342,0.000,12.965,0.000,0.000,24.998
13860,4.178,0.000,3.342,0.000,12.965,0.000,0.000,25.045
13881,4.178,0.000,3.342,0.000,12.965,0.000,0.000,25.034
13902,4.178,0.000,3.342,0.000,12.965,0.000,0.000,25.000
13923,4.178,0.000,3.342,0.000,12.965,0.000,0.000,24.980
13944,4.178,0.000,3.342,0.000,12.965,0.000,0.000,25.005
13965,4.178,0.000,3.342,0.000,12.965,0.000,0.000,24.972
13986,4.178,0.000,3.342,0.000,12.965,0.000,0.000,25.019
14007,4.178,0.000,3.342,0.000,12.965,0.000,0.000,25.009
14028,4.178,0.000,3.342,0.000,12.965,0.000,0.000,25.001
14049,4.178,0.000,3.342,0.000,12.965,0.000,0.000,25.022
14070,4.178,0.000,3.342,0.000,12.965,0.000,0.000,25.044
14091,4.178,0.000,3.342,0.000,12.965,0.000,0.000,25.039
14112,4.178,0.000,3.342,0.000,12.965,0.000,0.000,25.031
14133,4.178,0.000,3.342,0.000,12.965,0.000,0.000,25.056
14154,4.178,0.000,3.342,0.000,12.965,0.000,0.000,25.089
14175,4.177,0.000,3.342,0.000,12.965,0.000,0.000,25.087
14195,3.509,-10.047,3.342,0.006,12.965,0.020,-0.022,25.098
14216,3.414,-10.047,3.342,0.064,12.965,0.222,0.000,26.245
14237,3.382,-10.047,3.342,0.123,12.965,0.421,-0.001,28.038
14258,3.353,-10.046,3.342,0.181,12.965,0.618,0.000,29.663
14279,3.325,-10.046,3.342,0.240,12.965,0.814,-0.001,31.417
14300,3.303,-10.047,3.342,0.299,12.965,1.008,-0.001,32.891
14321,3.273,-10.047,3.342,0.357,12.965,1.201,-0.002,34.151
14342,3.252,-10.046,3.342,0.416,12.965,1.392,-0.002,35.651
14363,3.227,-10.047,3.342,0.474,12.965,1.582,-0.001,36.707
14384,3.208,-10.047,3.342,0.533,12.965,1.770,-0.001,37.765
14405,3.187,-10.047,3.342,0.592,12.965,1.958,-0.001,38.902
14426,3.168,-10.047,3.342,0.650,12.965,2.144,-0.001,39.798
14447,3.148,-10.047,3.342,0.709,12.965,2.329,-0.001,40.912
14468,3.127,-10.046,3.342,0.767,12.965,2.513,-0.001,41.786
14489,3.107,-10.047,3.342,0.826,12.965,2.695,-0.001,42.542
14510,3.088,-10.047,3.342,0.885,12.965,2.877,-0.001,43.471
14531,3.068,-10.047,3.342,0.943,12.965,3.057,-0.001,44.196
14552,3.048,-10.047,3.342,1.002,12.965,3.237,0.000,44.950
14573,3.030,-10.047,3.342,1.060,12.965,3.415,-0.001,45.890
14594,3.011,-10.047,3.342,1.119,12.965,3.592,-0.001,46.436
14615,2.992,-10.047,3.342,1.178,12.965,3.768,-0.001,47.221
14636,2.974,-10.048,3.342,1.236,12.965,3.942,-0.001,47.909
14657,2.956,-10.048,3.342,1.295,12.965,4.116,-0.001,48.402
14678,2.938,-10.048,3.342,1.354,12.965,4.289,-0.001,48.943
14699,2.920,-10.048,3.342,1.412,12.965,4.461,-0.001,49.597
14720,2.902,-10.048,3.342,1.471,12.965,4.631,-0.001,50.361
14741,2.883,-10.048,3.342,1.529,12.965,4.801,-0.001,50.957
14762,2.864,-10.047,3.342,1.588,12.965,4.969,-0.001,51.455
14783,2.843,-10.048,3.342,1.647,12.965,5.136,-0.001,52.041
14804,2.826,-10.049,3.342,1.705,12.965,5.303,-0.001,52.491
14825,2.807,-10.049,3.342,1.764,12.965,5.468,-0.001,52.986
14846,2.788,-10.048,3.342,1.822,12.965,5.632,-0.001,53.519
14867,2.768,-10.049,3.342,1.881,12.965,5.795,-0.001,54.250
14888,2.748,-10.049,3.342,1.940,12.965,5.956,-0.001,54.906
14909,2.728,-10.049,3.342,1.998,12.965,6.117,-0.001,55.267
14930,2.706,-10.049,3.342,2.057,12.965,6.276,-0.001,55.817
14951,2.685,-10.049,3.342,2.116,12.965,6.434,-0.001,56.093
14972,2.662,-10.049,3.342,2.174,12.965,6.591,-0.001,56.843
14993,2.640,-10.049,3.342,2.233,12.965,6.746,-0.001,57.284
15014,2.617,-10.049,3.342,2.291,12.965,6.900,-0.001,57.940
15035,2.595,-10.049,3.342,2.350,12.965,7.053,-0.001,58.513
15056,2.572,-10.050,3.342,2.409,12.965,7.204,-0.001,59.028
15077,2.549,-10.051,3.342,2.467,12.965,7.355,-0.001,59.592
15098,2.525,-10.050,3.342,2.526,12.965,7.503,-0.001,60.217
15119,2.501,-10.050,3.342,2.585,12.965,7.651,-0.001,60.600
15140,3.356,0.000,3.342,2.587,12.965,7.657,0.004,60.973
15161,3.404,0.000,3.342,2.587,12.965,7.657,0.001,60.438
15182,3.417,0.000,3.342,2.587,12.965,7.657,0.000,59.276
15203,3.421,0.000,3.342,2.587,12.965,7.657,0.000,57.807
15224,3.423,0.000,3.342,2.587,12.965,7.657,0.000,56.384
15245,3.425,0.000,3.342,2.587,12.965,7.657,0.000,54.599
15266,3.428,0.000,3.342,2.587,12.965,7.657,0.000,52.975
15287,3.431,0.000,3.342,2.587,12.965,7.657,0.000,51.663
15308,3.434,0.000,3.342,2.587,12.965,7.657,0.000,49.922
15329,3.438,0.000,3.342,2.587,12.965,7.657,0.000,48.659
15350,3.443,0.000,3.342,2.587,12.965,7.657,0.000,47.208
15371,3.447,0.000,3.342,2.587,12.965,7.657,0.000,45.899
15392,3.451,0.000,3.342,2.587,12.965,7.657,0.000,45.083
15413,3.454,0.000,3.342,2.587,12.965,7.657,0.000,43.906
15434,3.458,0.000,3.342,2.587,12.965,7.657,0.000,42.785
15455,3.460,0.000,3.342,2.587,12.965,7.657,0.000,41.897
15476,3.463,0.000,3.342,2.587,12.965,7.657,0.000,40.971
15497,3.465,0.000,3.342,2.587,12.965,7.657,0.000,39.993
15518,3.467,0.000,3.342,2.587,12.965,7.657,0.000,38.994
15539,3.469,0.000,3.342,2.587,12.965,7.657,0.000,38.560
15560,3.471,0.000,3.342,2.587,12.965,7.657,0.000,37.666
15581,3.472,0.000,3.342,2.587,12.965,7.657,0.000,36.963
15602,3.473,0.000,3.342,2.587,12.965,7.657,0.000,36.423
15623,3.474,0.000,3.342,2.587,12.965,7.657,0.000,35.801
15644,3.476,0.000,3.342,2.587,12.965,7.657,0.000,35.278
15665,3.476,0.000,3.342,2.587,12.965,7.657,0.000,34.743
15686,3.477,0.000,3.342,2.587,12.965,7.657,0.000,34.278
15707,3.478,0.000,3.342,2.587,12.965,7.657,0.000,33.845
15728,3.479,0.000,3.342,2.587,12.965,7.657,0.000,33.304
15749,3.479,0.000,3.342,2.587,12.965,7.657,0.000,32.809
15770,3.480,0.000,3.342,2.587,12.965,7.657,0.000,32.461
15791,3.481,0.000,3.342,2.587,12.965,7.657,0.000,32.064
15812,3.481,0.000,3.342,2.587,12.965,7.657,0.000,31.681
15833,3.482,0.000,3.342,2.587,12.965,7.657,0.000,31.319
15854,3.482,0.000,3.342,2.587,12.965,7.657,0.000,31.037
15875,3.483,0.000,3.342,2.587,12.965,7.657,0.000,30.826
15896,3.483,0.000,3.342,2.587,12.965,7.657,0.000,30.443
15917,3.484,0.000,3.342,2.587,12.965,7.657,0.000,30.218
15938,3.484,0.000,3.342,2.587,12.965,7.657,0.000,30.022
15959,3.484,0.000,3.342,2.587,12.965,7.657,0.000,29.703
15980,3.485,0.000,3.342,2.587,12.965,7.657,0.000,29.506
16001,3.485,0.000,3.342,2.587,12.965,7.657,0.000,29.315
16022,3.485,0.000,3.342,2.587,12.965,7.657,0.000,29.105
16043,3.486,0.000,3.342,2.587,12.965,7.657,0.000,28.920
16064,3.486,0.000,3.342,2.587,12.965,7.657,0.000,28.676
16085,3.486,0.000,3.342,2.587,12.965,7.657,0.000,28.547
16106,3.486,0.000,3.342,2.587,12.965,7.657,0.000,28.353
16127,3.487,0.000,3.342,2.587,12.965,7.657,0.000,28.186
16148,3.487,0.000,3.342,2.587,12.965,7.657,0.000,28.042
16169,3.487,0.000,3.342,2.587,12.965,7.657,0.000,27.888
16190,3.488,0.000,3.342,2.587,12.965,7.657,0.000,27.803
16211,3.488,0.000,3.342,2.587,12.965,7.657,0.000,27.622
16232,3.488,0.000,3.342,2.587,12.965,7.657,0.000,27.512
16253,3.488,0.000,3.342,2.587,12.965,7.657,0.000,27.382
16274,3.489,0.000,3.342,2.587,12.965,7.657,0.000,27.297
16295,3.489,0.000,3.342,2.587,12.965,7.657,0.000,27.222
16316,3.489,0.000,3.342,2.587,12.965,7.657,0.000,27.108
16337,3.489,0.000,3.342,2.587,12.965,7.657,0.000,27.013
16358,3.489,0.000,3.342,2.587,12.965,7.657,0.000,26.895
16379,3.489,0.000,3.342,2.587,12.965,7.657,0.000,26.815
16400,3.490,0.000,3.342,2.587,12.965,7.657,0.000,26.688
16421,3.490,0.000,3.342,2.587,12.965,7.657,0.000,26.646
16442,3.490,0.000,3.342,2.587,12.965,7.657,0.000,26.607
16463,3.490,0.000,3.342,2.587,12.965,7.657,0.000,26.536
16484,3.490,0.000,3.342,2.587,12.965,7.657,0.000,26.426
16505,3.490,0.000,3.342,2.587,12.965,7.657,0.000,26.375
16526,3.491,0.000,3.342,2.587,12.965,7.657,0.000,26.319
16547,3.491,0.000,3.342,2.587,12.965,7.657,0.000,26.217
16568,3.491,0.000,3.342,2.587,12.965,7.657,0.000,26.193
16589,3.491,0.000,3.342,2.587,12.965,7.657,0.000,26.154
16610,3.491,0.000,3.342,2.587,12.965,7.657,0.000,26.121
16631,3.491,0.000,3.342,2.587,12.965,7.657,0.000,25.987
16652,3.491,0.000,3.342,2.587,12.965,7.657,0.000,25.961
16673,3.491,0.000,3.342,2.587,12.965,7.657,0.000,25.905
16694,3.492,0.000,3.342,2.587,12.965,7.657,0.000,25.906
16715,3.492,0.000,3.342,2.587,12.965,7.657,0.000,25.807
16736,3.492,0.000,3.342,2.587,12.965,7.657,0.000,25.815
16757,3.492,0.000,3.342,2.587,12.965,7.657,0.000,25.766
16778,3.492,0.000,3.342,2.587,12.965,7.657,0.000,25.729
16799,3.492,0.000,3.342,2.587,12.965,7.657,0.000,25.633
16820,3.492,0.000,3.342,2.587,12.965,7.657,0.000,25.663
16841,3.492,0.000,3.342,2.587,12.965,7.657,0.000,25.587
16862,3.492,0.000,3.342,2.587,12.965,7.657,0.000,25.576
16883,3.493,0.000,3.342,2.587,12.965,7.657,0.000,25.553
16904,3.493,0.000,3.342,2.587,12.965,7.657,0.000,25.494
16925,3.493,0.000,3.342,2.587,12.965,7.657,0.000,25.536
16946,3.493,0.000,3.342,2.587,12.965,7.657,0.000,25.441
16967,3.493,0.000,3.342,2.587,12.965,7.657,0.000,25.403
16988,3.493,0.000,3.342,2.587,12.965,7.657,0.000,25.394
17009,3.493,0.000,3.342,2.587,12.965,7.657,0.000,25.399
17030,3.493,0.000,3.342,2.587,12.965,7.657,0.000,25.348
17051,3.493,0.000,3.342,2.587,12.965,7.657,0.000,25.317
17072,3.493,0.000,3.342,2.587,12.965,7.657,0.000,25.285
17093,3.494,0.000,3.342,2.587,12.965,7.657,0.000,25.302
17114,3.494,0.000,3.342,2.587,12.965,7.657,0.000,25.292
17135,3.494,0.000,3.342,2.587,12.965,7.657,0.000,25.239
17156,3.494,0.000,3.342,2.587,12.965,7.657,0.000,25.201
17177,3.494,0.000,3.342,2.587,12.965,7.657,0.000,25.191
17198,3.494,0.000,3.342,2.587,12.965,7.657,0.000,25.174
17219,3.494,0.000,3.342,2.587,12.965,7.657,0.000,25.109
17240,3.494,0.000,3.342,2.587,12.965,7.657,0.000,25.154
17261,3.494,0.000,3.342,2.587,12.965,7.657,0.000,25.111
17282,3.494,0.000,3.342,2.587,12.965,7.657,0.000,25.094
17303,3.494,0.000,3.342,2.587,12.965,7.657,0.000,25.113
17324,3.494,0.000,3.342,2.587,12.965,7.657,0.000,25.053
17345,3.494,0.000,3.342,2.587,12.965,7.657,0.000,25.025
17366,3.495,0.000,3.342,2.587,12.965,7.657,0.000,25.071
17387,3.495,0.000,3.342,2.587,12.965,7.657,0.000,25.052
17408,3.495,0.000,3.342,2.587,12.965,7.657,0.000,24.993
17429,3.495,0.000,3.342,2.587,12.965,7.657,0.000,25.000
17450,3.495,0.000,3.342,2.587,12.965,7.657,0.000,24.940
17471,3.495,0.000,3.342,2.587,12.965,7.657,0.000,24.991
17492,3.495,0.000,3.342,2.587,12.965,7.657,0.000,24.954
17513,3.495,0.000,3.342,2.587,12.965,7.657,0.000,24.924
17534,3.495,0.000,3.342,2.587,12.965,7.657,0.000,24.947
17555,3.495,0.000,3.342,2.587,12.965,7.657,0.000,24.896
17576,3.495,0.000,3.342,2.587,12.965,7.657,0.000,24.962
17597,3.495,0.000,3.342,2.587,12.965,7.657,0.000,24.884
17618,3.495,0.000,3.342,2.587,12.965,7.657,0.000,24.860
17639,3.495,0.000,3.342,2.587,12.965,7.657,0.000,24.901
17660,3.495,0.000,3.342,2.587,12.965,7.657,0.000,24.885
17681,3.495,0.000,3.342,2.587,12.965,7.657,0.000,24.844
17702,3.495,0.000,3.342,2.587,12.965,7.657,0.000,24.886
17723,3.496,0.000,3.342,2.587,12.965,7.657,0.000,24.840
17744,3.496,0.000,3.342,2.587,12.965,7.657,0.000,24.873
17765,3.496,0.000,3.342,2.587,12.965,7.657,0.000,24.855
17786,3.496,0.000,3.342,2.587,12.965,7.657,0.000,24.854
17807,3.496,0.000,3.342,2.587,12.965,7.657,0.000,24.860
17828,3.496,0.000,3.342,2.587,12.965,7.657,0.000,24.864
17849,3.496,0.000,3.342,2.587,12.965,7.657,0.000,24.810
17870,3.496,0.000,3.342,2.587,12.965,7.657,0.000,24.812
17891,3.496,0.000,3.342,2.587,12.965,7.657,0.000,24.813
17912,3.496,0.000,3.342,2.587,12.965,7.657,0.000,24.801
17933,3.496,0.000,3.342,2.587,12.965,7.657,0.000,24.824
17954,3.496,0.000,3.342,2.587,12.965,7.657,0.000,24.789
17975,3.496,0.000,3.342,2.587,12.965,7.657,0.000,24.781
17996,3.496,0.000,3.342,2.587,12.965,7.657,0.000,24.788
18017,3.496,0.000,3.342,2.587,12.965,7.657,0.000,24.756
18038,3.496,0.000,3.342,2.587,12.965,7.657,0.000,24.770
18059,3.496,0.000,3.342,2.587,12.965,7.657,0.000,24.746
18080,3.496,0.000,3.342,2.587,12.965,7.657,0.000,24.722
18101,3.497,0.000,3.342,2.587,12.965,7.657,0.000,24.750
18122,3.496,0.000,3.342,2.587,12.965,7.657,0.000,24.717
18143,3.497,0.000,3.342,2.587,12.965,7.657,0.000,24.746
18164,3.496,0.000,3.342,2.587,12.965,7.657,0.000,24.745
18185,3.497,0.000,3.342,2.587,12.965,7.657,0.000,24.748
18206,3.497,0.000,3.342,2.587,12.965,7.657,0.000,24.716
18227,3.497,0.000,3.342,2.587,12.965,7.657,0.000,24.753
18248,3.497,0.000,3.342,2.587,12.965,7.657,0.000,24.675
18269,3.497,0.000,3.342,2.587,12.965,7.657,0.000,24.733
18290,3.497,0.000,3.342,2.587,12.965,7.657,0.000,24.729
18311,3.497,0.000,3.342,2.587,12.965,7.657,0.000,24.689
18332,3.497,0.000,3.342,2.587,12.965,7.657,0.000,24.696
18353,3.497,0.000,3.342,2.587,12.965,7.657,0.000,24.724
18374,3.497,0.000,3.342,2.587,12.965,7.657,0.000,24.699
18395,3.497,0.000,3.342,2.587,12.965,7.657,0.000,24.692
18416,3.497,0.000,3.342,2.587,12.965,7.657,0.000,24.687
18437,3.497,0.000,3.342,2.587,12.965,7.657,0.000,24.652
18458,3.497,0.000,3.342,2.587,12.965,7.657,0.000,24.694
18479,3.497,0.000,3.342,2.587,12.965,7.657,0.000,24.660
18500,3.497,0.000,3.342,2.587,12.965,7.657,0.000,24.691
18521,3.497,0.000,3.342,2.587,12.965,7.657,0.000,24.655
18542,3.497,0.000,3.342,2.587,12.965,7.657,0.000,24.659
18563,3.497,0.000,3.342,2.587,12.965,7.657,0.000,24.677
18584,3.497,0.000,3.342,2.587,12.965,7.657,0.000,24.674
18605,3.497,0.000,3.342,2.587,12.965,7.657,0.000,24.639
18626,3.497,0.000,3.342,2.587,12.965,7.657,0.000,24.634
18647,3.497,0.000,3.342,2.587,12.965,7.657,0.000,24.678
18668,3.497,0.000,3.342,2.587,12.965,7.657,0.000,24.705
18689,3.497,0.000,3.342,2.587,12.965,7.657,0.000,24.656
18710,3.497,0.000,3.342,2.587,12.965,7.657,0.000,24.631
18720,3.497,0.000,3.342,2.587,12.965,7.657,0.000,24.656