File: data/T25/3C/5.csv
time_s,voltage_v,current_a,chargecapacity_ah,dischargecapacity_ah,charge_energy_wh,discharge_energy_wh,voltagedot_v_per_s,temp_degc
1,3.075,0.000,0.000,0.000,0.000,0.000,0.000,23.636
23,3.075,0.000,0.000,0.000,0.000,0.000,0.000,23.748
45,3.075,0.000,0.000,0.000,0.000,0.000,0.000,23.862
66,3.425,1.625,0.003,0.000,0.009,0.000,0.005,23.921
88,3.486,1.625,0.013,0.000,0.044,0.000,-0.001,24.007
110,3.528,1.625,0.023,0.000,0.078,0.000,-0.002,24.102
132,3.549,1.625,0.033,0.000,0.114,0.000,-0.003,24.213
154,3.572,1.625,0.042,0.000,0.149,0.000,0.000,24.320
176,3.590,1.625,0.052,0.000,0.185,0.000,-0.001,24.423
198,3.606,1.625,0.062,0.000,0.220,0.000,0.002,24.503
220,3.622,1.625,0.072,0.000,0.256,0.000,0.000,24.608
242,3.639,1.625,0.082,0.000,0.292,0.000,0.005,24.698
264,3.649,1.625,0.092,0.000,0.328,0.000,-0.002,24.819
286,3.652,1.625,0.102,0.000,0.365,0.000,-0.006,24.856
308,3.654,1.625,0.112,0.000,0.401,0.000,0.002,24.948
330,3.656,1.625,0.122,0.000,0.437,0.000,0.004,25.116
352,3.661,1.625,0.132,0.000,0.474,0.000,-0.002,25.198
374,3.669,1.625,0.142,0.000,0.510,0.000,-0.003,25.283
396,3.661,1.625,0.152,0.000,0.546,0.000,-0.002,25.390
418,3.656,1.625,0.162,0.000,0.583,0.000,-0.002,25.495
440,3.655,1.625,0.172,0.000,0.619,0.000,0.002,25.569
462,3.659,1.625,0.181,0.000,0.655,0.000,-0.001,25.654
484,3.661,1.625,0.191,0.000,0.692,0.000,-0.003,25.722
506,3.661,1.625,0.201,0.000,0.728,0.000,0.005,25.824
528,3.657,1.625,0.211,0.000,0.765,0.000,-0.004,25.924
550,3.659,1.625,0.221,0.000,0.801,0.000,0.001,25.890
572,3.665,1.625,0.231,0.000,0.837,0.000,0.003,25.991
594,3.664,1.625,0.241,0.000,0.874,0.000,0.001,26.048
616,3.668,1.625,0.251,0.000,0.910,0.000,0.002,26.079
638,3.664,1.625,0.261,0.000,0.946,0.000,-0.001,26.133
660,3.661,1.625,0.271,0.000,0.983,0.000,0.003,26.190
682,3.669,1.625,0.281,0.000,1.019,0.000,0.000,26.183
704,3.671,1.625,0.291,0.000,1.056,0.000,0.000,26.282
726,3.664,1.625,0.301,0.000,1.092,0.000,0.001,26.283
748,3.675,1.625,0.311,0.000,1.129,0.000,0.004,26.327
770,3.674,1.625,0.321,0.000,1.165,0.000,-0.002,26.403
792,3.679,1.625,0.330,0.000,1.202,0.000,-0.002,26.352
814,3.677,1.625,0.340,0.000,1.238,0.000,-0.002,26.397
836,3.681,1.625,0.350,0.000,1.275,0.000,-0.002,26.402
858,3.683,1.625,0.360,0.000,1.311,0.000,0.000,26.423
880,3.684,1.625,0.370,0.000,1.348,0.000,-0.004,26.475
902,3.683,1.625,0.380,0.000,1.384,0.000,-0.001,26.539
924,3.683,1.625,0.390,0.000,1.421,0.000,-0.001,26.521
946,3.688,1.625,0.400,0.000,1.458,0.000,-0.004,26.516
968,3.689,1.625,0.410,0.000,1.494,0.000,0.000,26.495
990,3.690,1.625,0.420,0.000,1.531,0.000,-0.001,26.570
1012,3.698,1.625,0.430,0.000,1.568,0.000,-0.003,26.583
1034,3.695,1.625,0.440,0.000,1.604,0.000,0.000,26.521
1056,3.697,1.625,0.450,0.000,1.641,0.000,0.001,26.564
1078,3.705,1.625,0.460,0.000,1.678,0.000,0.001,26.522
1100,3.705,1.625,0.470,0.000,1.715,0.000,0.000,26.598
1122,3.705,1.625,0.479,0.000,1.751,0.000,-0.001,26.564
1144,3.714,1.625,0.489,0.000,1.788,0.000,0.001,26.568
1166,3.721,1.625,0.499,0.000,1.825,0.000,0.004,26.547
1188,3.720,1.625,0.509,0.000,1.862,0.000,0.001,26.519
1210,3.724,1.625,0.519,0.000,1.899,0.000,0.001,26.564
1232,3.726,1.625,0.529,0.000,1.936,0.000,-0.001,26.589
1254,3.726,1.625,0.539,0.000,1.973,0.000,-0.003,26.549
1276,3.724,1.625,0.549,0.000,2.010,0.000,0.001,26.520
1298,3.729,1.625,0.559,0.000,2.047,0.000,-0.005,26.535
1320,3.728,1.625,0.569,0.000,2.084,0.000,0.000,26.518
1342,3.731,1.625,0.579,0.000,2.121,0.000,-0.003,26.500
1364,3.735,1.625,0.589,0.000,2.158,0.000,0.001,26.506
1386,3.727,1.625,0.599,0.000,2.195,0.000,-0.005,26.516
1408,3.731,1.625,0.609,0.000,2.232,0.000,-0.001,26.483
1430,3.731,1.625,0.619,0.000,2.269,0.000,0.000,26.470
1452,3.734,1.625,0.628,0.000,2.307,0.000,0.001,26.483
1474,3.738,1.625,0.638,0.000,2.344,0.000,0.002,26.462
1496,3.736,1.625,0.648,0.000,2.381,0.000,-0.002,26.446
1518,3.742,1.625,0.658,0.000,2.418,0.000,0.001,26.497
1540,3.741,1.625,0.668,0.000,2.455,0.000,-0.002,26.480
1562,3.743,1.625,0.678,0.000,2.492,0.000,0.001,26.468
1584,3.744,1.625,0.688,0.000,2.529,0.000,-0.002,26.447
1606,3.745,1.625,0.698,0.000,2.567,0.000,-0.002,26.428
1628,3.746,1.625,0.708,0.000,2.604,0.000,-0.004,26.461
1650,3.748,1.625,0.718,0.000,2.641,0.000,0.001,26.452
1672,3.749,1.625,0.728,0.000,2.678,0.000,-0.001,26.428
1694,3.749,1.625,0.738,0.000,2.715,0.000,0.000,26.487
1716,3.757,1.625,0.748,0.000,2.753,0.000,-0.001,26.455
1738,3.750,1.625,0.758,0.000,2.790,0.000,-0.005,26.470
1760,3.755,1.625,0.767,0.000,2.827,0.000,0.004,26.463
1782,3.756,1.625,0.777,0.000,2.865,0.000,0.002,26.445
1804,3.757,1.625,0.787,0.000,2.902,0.000,-0.005,26.472
1826,3.765,1.625,0.797,0.000,2.939,0.000,0.001,26.425
1848,3.767,1.625,0.807,0.000,2.977,0.000,-0.001,26.499
1870,3.764,1.625,0.817,0.000,3.014,0.000,-0.005,26.446
1892,3.768,1.625,0.827,0.000,3.051,0.000,-0.001,26.494
1914,3.771,1.625,0.837,0.000,3.089,0.000,0.005,26.448
1936,3.774,1.625,0.847,0.000,3.126,0.000,-0.004,26.463
1958,3.767,1.625,0.857,0.000,3.164,0.000,-0.002,26.476
1980,3.772,1.625,0.867,0.000,3.201,0.000,0.002,26.491
2002,3.772,1.625,0.877,0.000,3.239,0.000,0.004,26.446
2024,3.772,1.625,0.887,0.000,3.276,0.000,-0.007,26.490
2046,3.779,1.625,0.897,0.000,3.314,0.000,0.001,26.474
2068,3.780,1.625,0.907,0.000,3.351,0.000,0.001,26.468
2090,3.781,1.625,0.916,0.000,3.389,0.000,0.001,26.502
2112,3.780,1.625,0.926,0.000,3.426,0.000,0.002,26.496
2134,3.783,1.625,0.936,0.000,3.464,0.000,0.004,26.538
2156,3.785,1.625,0.946,0.000,3.501,0.000,-0.004,26.515
2178,3.789,1.625,0.956,0.000,3.539,0.000,-0.001,26.501
2200,3.781,1.625,0.966,0.000,3.577,0.000,0.003,26.498
2222,3.789,1.625,0.976,0.000,3.614,0.000,0.005,26.535
2244,3.791,1.625,0.986,0.000,3.652,0.000,0.000,26.469
2266,3.793,1.625,0.996,0.000,3.690,0.000,0.001,26.521
2288,3.795,1.625,1.006,0.000,3.727,0.000,0.001,26.541
2310,3.799,1.625,1.016,0.000,3.765,0.000,0.000,26.551
2332,3.800,1.625,1.026,0.000,3.803,0.000,0.001,26.540
2354,3.800,1.625,1.036,0.000,3.840,0.000,0.001,26.568
2376,3.801,1.625,1.046,0.000,3.878,0.000,0.003,26.528
2398,3.800,1.625,1.056,0.000,3.916,0.000,-0.002,26.559
2420,3.808,1.625,1.065,0.000,3.954,0.000,-0.001,26.556
2442,3.808,1.625,1.075,0.000,3.992,0.000,0.003,26.564
2464,3.811,1.625,1.085,0.000,4.029,0.000,-0.001,26.537
2486,3.811,1.625,1.095,0.000,4.067,0.000,-0.002,26.604
2508,3.809,1.625,1.105,0.000,4.105,0.000,0.000,26.576
2530,3.811,1.625,1.115,0.000,4.143,0.000,0.003,26.561
2552,3.814,1.625,1.125,0.000,4.181,0.000,0.000,26.564
2574,3.816,1.625,1.135,0.000,4.219,0.000,0.003,26.559
2596,3.822,1.625,1.145,0.000,4.257,0.000,-0.001,26.644
2618,3.817,1.625,1.155,0.000,4.295,0.000,0.006,26.571
2640,3.825,1.625,1.165,0.000,4.333,0.000,0.003,26.590
2662,3.823,1.625,1.175,0.000,4.371,0.000,0.000,26.641
2684,3.827,1.625,1.185,0.000,4.409,0.000,0.004,26.579
2706,3.827,1.625,1.195,0.000,4.447,0.000,-0.001,26.604
2728,3.825,1.625,1.204,0.000,4.485,0.000,-0.002,26.645
2750,3.828,1.625,1.214,0.000,4.523,0.000,0.001,26.621
2772,3.825,1.625,1.224,0.000,4.561,0.000,-0.002,26.638
2794,3.827,1.625,1.234,0.000,4.599,0.000,-0.006,26.634
2816,3.830,1.625,1.244,0.000,4.637,0.000,-0.001,26.681
2838,3.830,1.625,1.254,0.000,4.675,0.000,-0.002,26.649
2860,3.833,1.625,1.264,0.000,4.713,0.000,-0.001,26.666
2882,3.835,1.625,1.274,0.000,4.751,0.000,0.002,26.642
2904,3.834,1.625,1.284,0.000,4.789,0.000,0.003,26.675
2926,3.839,1.625,1.294,0.000,4.827,0.000,0.001,26.686
2948,3.836,1.625,1.304,0.000,4.865,0.000,0.000,26.652
2970,3.840,1.625,1.314,0.000,4.903,0.000,0.002,26.681
2992,3.838,1.625,1.324,0.000,4.941,0.000,0.001,26.616
3014,3.842,1.625,1.334,0.000,4.979,0.000,0.001,26.678
3036,3.850,1.625,1.344,0.000,5.018,0.000,0.001,26.693
3058,3.851,1.625,1.353,0.000,5.056,0.000,0.003,26.658
3080,3.850,1.625,1.363,0.000,5.094,0.000,-0.001,26.646
3102,3.852,1.625,1.373,0.000,5.132,0.000,0.002,26.651
3124,3.851,1.625,1.383,0.000,5.171,0.000,-0.001,26.697
3146,3.854,1.625,1.393,0.000,5.209,0.000,0.000,26.667
3168,3.853,1.625,1.403,0.000,5.247,0.000,0.002,26.686
3190,3.859,1.625,1.413,0.000,5.285,0.000,-0.003,26.704
3212,3.860,1.625,1.423,0.000,5.324,0.000,0.005,26.650
3234,3.862,1.625,1.433,0.000,5.362,0.000,-0.001,26.670
3256,3.862,1.625,1.443,0.000,5.400,0.000,0.002,26.719
3278,3.863,1.625,1.453,0.000,5.439,0.000,0.001,26.698
3300,3.864,1.625,1.463,0.000,5.477,0.000,0.003,26.680
3322,3.865,1.625,1.473,0.000,5.516,0.000,-0.004,26.736
3344,3.872,1.625,1.483,0.000,5.554,0.000,0.001,26.715
3366,3.873,1.625,1.493,0.000,5.593,0.000,-0.001,26.738
3388,3.877,1.625,1.502,0.000,5.631,0.000,0.000,26.667
3410,3.878,1.625,1.512,0.000,5.670,0.000,-0.002,26.727
3432,3.882,1.625,1.522,0.000,5.708,0.000,0.004,26.690
3454,3.880,1.625,1.532,0.000,5.747,0.000,0.001,26.677
3476,3.885,1.625,1.542,0.000,5.785,0.000,0.004,26.724
3498,3.886,1.625,1.552,0.000,5.824,0.000,0.004,26.690
3520,3.888,1.625,1.562,0.000,5.862,0.000,0.003,26.721
3542,3.890,1.625,1.572,0.000,5.901,0.000,-0.002,26.763
3564,3.891,1.625,1.582,0.000,5.940,0.000,0.001,26.781
3586,3.893,1.625,1.592,0.000,5.978,0.000,0.000,26.754
3608,3.894,1.625,1.602,0.000,6.017,0.000,0.000,26.779
3630,3.896,1.625,1.612,0.000,6.056,0.000,-0.003,26.748
3652,3.901,1.625,1.622,0.000,6.094,0.000,0.002,26.742
3674,3.900,1.625,1.632,0.000,6.133,0.000,0.000,26.766
3696,3.906,1.625,1.642,0.000,6.172,0.000,0.002,26.742
3718,3.905,1.625,1.651,0.000,6.211,0.000,-0.001,26.759
3740,3.908,1.625,1.661,0.000,6.249,0.000,-0.001,26.768
3762,3.911,1.625,1.671,0.000,6.288,0.000,0.002,26.729
3784,3.914,1.625,1.681,0.000,6.327,0.000,0.001,26.759
3806,3.916,1.625,1.691,0.000,6.366,0.000,0.000,26.767
3828,3.921,1.625,1.701,0.000,6.405,0.000,0.001,26.773
3850,3.924,1.625,1.711,0.000,6.444,0.000,0.000,26.753
3872,3.925,1.625,1.721,0.000,6.483,0.000,0.000,26.783
3894,3.926,1.625,1.731,0.000,6.522,0.000,0.002,26.733
3916,3.935,1.625,1.741,0.000,6.561,0.000,0.006,26.792
3938,3.935,1.625,1.751,0.000,6.600,0.000,0.000,26.789
3960,3.936,1.625,1.761,0.000,6.639,0.000,-0.002,26.815
3982,3.941,1.625,1.771,0.000,6.678,0.000,0.000,26.788
4004,3.943,1.625,1.781,0.000,6.717,0.000,0.005,26.786
4026,3.942,1.625,1.790,0.000,6.757,0.000,0.002,26.779
4048,3.951,1.625,1.800,0.000,6.796,0.000,0.000,26.874
4070,3.954,1.625,1.810,0.000,6.835,0.000,-0.003,26.776
4092,3.954,1.625,1.820,0.000,6.874,0.000,0.002,26.798
4114,3.956,1.625,1.830,0.000,6.913,0.000,-0.001,26.773
4136,3.958,1.625,1.840,0.000,6.953,0.000,-0.003,26.787
4158,3.959,1.625,1.850,0.000,6.992,0.000,0.002,26.781
4180,3.962,1.625,1.860,0.000,7.031,0.000,0.002,26.820
4202,3.965,1.625,1.870,0.000,7.071,0.000,-0.001,26.808
4224,3.972,1.625,1.880,0.000,7.110,0.000,0.003,26.789
4246,3.976,1.625,1.890,0.000,7.150,0.000,-0.001,26.799
4268,3.980,1.625,1.900,0.000,7.189,0.000,0.004,26.797
4290,3.979,1.625,1.910,0.000,7.229,0.000,-0.002,26.852
4312,3.983,1.625,1.920,0.000,7.268,0.000,0.000,26.825
4334,3.985,1.625,1.930,0.000,7.308,0.000,-0.003,26.870
4356,3.987,1.625,1.939,0.000,7.347,0.000,0.002,26.839
4378,3.990,1.625,1.949,0.000,7.387,0.000,-0.001,26.785
4400,3.997,1.625,1.959,0.000,7.427,0.000,0.002,26.856
4422,3.996,1.625,1.969,0.000,7.466,0.000,0.000,26.839
4444,3.999,1.625,1.979,0.000,7.506,0.000,0.001,26.810
4466,4.006,1.625,1.989,0.000,7.546,0.000,0.003,26.821
4488,4.007,1.625,1.999,0.000,7.586,0.000,-0.003,26.855
4510,4.012,1.625,2.009,0.000,7.625,0.000,0.001,26.876
4532,4.010,1.625,2.019,0.000,7.665,0.000,-0.003,26.809
4554,4.011,1.625,2.029,0.000,7.705,0.000,0.000,26.815
4576,4.014,1.625,2.039,0.000,7.745,0.000,-0.001,26.813
4598,4.018,1.625,2.049,0.000,7.785,0.000,0.002,26.834
4620,4.022,1.625,2.059,0.000,7.825,0.000,-0.001,26.854
4642,4.026,1.625,2.069,0.000,7.865,0.000,0.000,26.814
4664,4.032,1.625,2.079,0.000,7.905,0.000,0.001,26.870
4686,4.032,1.625,2.088,0.000,7.945,0.000,-0.002,26.821
4708,4.037,1.625,2.098,0.000,7.985,0.000,-0.002,26.840
4730,4.045,1.625,2.108,0.000,8.025,0.000,0.004,26.815
4752,4.043,1.625,2.118,0.000,8.065,0.000,0.003,26.826
4774,4.049,1.625,2.128,0.000,8.105,0.000,0.002,26.833
4796,4.053,1.625,2.138,0.000,8.146,0.000,0.001,26.879
4818,4.054,1.625,2.148,0.000,8.186,0.000,-0.001,26.850
4840,4.056,1.625,2.158,0.000,8.226,0.000,0.001,26.810
4862,4.058,1.625,2.168,0.000,8.266,0.000,0.002,26.847
4884,4.062,1.625,2.178,0.000,8.307,0.000,0.002,26.810
4906,4.064,1.625,2.188,0.000,8.347,0.000,0.000,26.832
4928,4.065,1.625,2.198,0.000,8.387,0.000,0.000,26.836
4950,4.069,1.625,2.208,0.000,8.428,0.000,0.000,26.840
4972,4.070,1.625,2.218,0.000,8.468,0.000,0.001,26.839
4994,4.076,1.625,2.228,0.000,8.509,0.000,0.000,26.865
5016,4.083,1.625,2.237,0.000,8.549,0.000,0.001,26.804
5038,4.080,1.625,2.247,0.000,8.590,0.000,0.000,26.822
5060,4.085,1.625,2.257,0.000,8.630,0.000,0.002,26.849
5082,4.088,1.625,2.267,0.000,8.671,0.000,0.001,26.857
5104,4.091,1.625,2.277,0.000,8.711,0.000,0.001,26.861
5126,4.096,1.625,2.287,0.000,8.752,0.000,0.002,26.812
5148,4.096,1.625,2.297,0.000,8.793,0.000,0.004,26.827
5170,4.098,1.625,2.307,0.000,8.833,0.000,0.001,26.831
5192,4.098,1.625,2.317,0.000,8.874,0.000,0.000,26.851
5214,4.100,1.625,2.327,0.000,8.915,0.000,0.000,26.850
5236,4.111,1.625,2.337,0.000,8.956,0.000,0.002,26.822
5258,4.108,1.625,2.347,0.000,8.996,0.000,-0.001,26.807
5280,4.110,1.625,2.357,0.000,9.037,0.000,-0.003,26.834
5302,4.113,1.625,2.367,0.000,9.078,0.000,-0.003,26.838
5324,4.115,1.625,2.376,0.000,9.119,0.000,0.000,26.825
5346,4.121,1.625,2.386,0.000,9.160,0.000,0.002,26.844
5368,4.122,1.625,2.396,0.000,9.201,0.000,-0.003,26.805
5390,4.122,1.625,2.406,0.000,9.242,0.000,0.001,26.889
5412,4.121,1.625,2.416,0.000,9.283,0.000,0.001,26.842
5434,4.120,1.625,2.426,0.000,9.324,0.000,0.000,26.856
5456,4.124,1.625,2.436,0.000,9.364,0.000,0.000,26.870
5478,4.129,1.625,2.446,0.000,9.405,0.000,0.001,26.867
5500,4.133,1.625,2.456,0.000,9.446,0.000,0.000,26.890
5522,4.136,1.625,2.466,0.000,9.488,0.000,-0.001,26.876
5544,4.140,1.625,2.476,0.000,9.529,0.000,0.001,26.894
5566,4.139,1.625,2.486,0.000,9.570,0.000,-0.001,26.857
5588,4.142,1.625,2.496,0.000,9.611,0.000,0.000,26.868
5610,4.146,1.625,2.506,0.000,9.652,0.000,0.000,26.945
5632,4.150,1.625,2.516,0.000,9.693,0.000,0.000,26.869
5654,4.152,1.625,2.525,0.000,9.734,0.000,-0.001,26.909
5676,4.157,1.625,2.535,0.000,9.776,0.000,0.000,26.925
5698,4.162,1.625,2.545,0.000,9.817,0.000,0.001,26.932
5720,4.162,1.625,2.555,0.000,9.858,0.000,-0.002,26.950
5742,4.167,1.625,2.565,0.000,9.900,0.000,0.000,26.946
5764,4.168,1.625,2.575,0.000,9.941,0.000,0.000,26.968
5786,4.174,1.625,2.585,0.000,9.983,0.000,0.002,26.931
5808,4.175,1.625,2.595,0.000,10.024,0.000,0.000,26.946
5830,4.177,1.625,2.605,0.000,10.066,0.000,-0.001,26.918
5852,4.182,1.625,2.615,0.000,10.107,0.000,0.000,26.974
5874,4.185,1.625,2.625,0.000,10.149,0.000,-0.001,26.908
5896,4.189,1.625,2.635,0.000,10.190,0.000,0.000,26.966
5918,4.191,1.625,2.645,0.000,10.232,0.000,-0.001,27.037
5940,4.195,1.625,2.655,0.000,10.273,0.000,0.000,26.992
5962,4.200,1.645,2.664,0.000,10.315,0.000,-0.001,27.019
5984,4.200,1.598,2.674,0.000,10.357,0.000,0.000,27.045
6006,4.200,1.580,2.684,0.000,10.397,0.000,0.001,26.990
6028,4.199,1.561,2.694,0.000,10.438,0.000,-0.002,27.038
6050,4.200,1.534,2.703,0.000,10.477,0.000,0.000,27.032
6072,4.200,1.529,2.712,0.000,10.516,0.000,0.000,26.984
6094,4.200,1.505,2.722,0.000,10.555,0.000,0.000,26.995
6116,4.200,1.479,2.731,0.000,10.593,0.000,0.000,27.008
6138,4.200,1.458,2.740,0.000,10.630,0.000,0.000,26.957
6160,4.200,1.441,2.748,0.000,10.668,0.000,0.000,26.956
6182,4.200,1.426,2.757,0.000,10.704,0.000,0.000,26.974
6204,4.200,1.401,2.766,0.000,10.740,0.000,0.000,26.965
6226,4.200,1.390,2.774,0.000,10.776,0.000,0.000,26.953
6248,4.200,1.372,2.783,0.000,10.812,0.000,0.000,26.952
6270,4.200,1.353,2.791,0.000,10.846,0.000,0.000,26.880
6292,4.200,1.330,2.799,0.000,10.881,0.000,0.000,26.899
6314,4.200,1.310,2.807,0.000,10.915,0.000,0.000,26.893
6336,4.200,1.288,2.815,0.000,10.948,0.000,0.000,26.840
6358,4.200,1.265,2.823,0.000,10.981,0.000,0.000,26.847
6380,4.200,1.244,2.831,0.000,11.013,0.000,0.000,26.799
6402,4.200,1.221,2.838,0.000,11.045,0.000,0.000,26.796
6424,4.200,1.201,2.846,0.000,11.076,0.000,0.000,26.751
6446,4.200,1.183,2.853,0.000,11.106,0.000,0.000,26.777
6468,4.200,1.163,2.860,0.000,11.136,0.000,0.000,26.753
6490,4.200,1.141,2.867,0.000,11.166,0.000,0.000,26.707
6512,4.200,1.122,2.874,0.000,11.195,0.000,0.000,26.706
6534,4.200,1.102,2.881,0.000,11.223,0.000,0.000,26.687
6556,4.200,1.083,2.887,0.000,11.251,0.000,0.000,26.657
6578,4.200,1.064,2.894,0.000,11.279,0.000,0.000,26.624
6600,4.200,1.045,2.900,0.000,11.306,0.000,0.000,26.654
6622,4.200,1.030,2.907,0.000,11.332,0.000,0.000,26.576
6644,4.200,1.012,2.913,0.000,11.359,0.000,0.000,26.537
6666,4.200,0.997,2.919,0.000,11.384,0.000,0.000,26.499
6688,4.200,0.981,2.925,0.000,11.410,0.000,0.000,26.490
6710,4.200,0.963,2.931,0.000,11.435,0.000,0.000,26.488
6732,4.200,0.948,2.937,0.000,11.459,0.000,0.000,26.459
6754,4.200,0.934,2.943,0.000,11.483,0.000,0.000,26.446
6776,4.200,0.921,2.948,0.000,11.507,0.000,0.000,26.356
6798,4.200,0.906,2.954,0.000,11.531,0.000,0.000,26.377
6820,4.200,0.895,2.959,0.000,11.554,0.000,0.000,26.328
6842,4.200,0.881,2.965,0.000,11.577,0.000,0.000,26.305
6864,4.200,0.868,2.970,0.000,11.599,0.000,0.000,26.273
6886,4.200,0.855,2.975,0.000,11.621,0.000,0.000,26.272
6908,4.200,0.842,2.981,0.000,11.643,0.000,0.000,26.253
6930,4.200,0.832,2.986,0.000,11.664,0.000,0.000,26.249
6952,4.200,0.820,2.991,0.000,11.686,0.000,0.000,26.206
6974,4.200,0.810,2.996,0.000,11.706,0.000,0.000,26.154
6996,4.200,0.796,3.001,0.000,11.727,0.000,0.000,26.156
7018,4.200,0.788,3.006,0.000,11.747,0.000,0.000,26.134
7040,4.200,0.777,3.010,0.000,11.768,0.000,0.000,26.113
7062,4.200,0.767,3.015,0.000,11.787,0.000,0.000,26.139
7084,4.200,0.757,3.020,0.000,11.807,0.000,0.000,26.109
7106,4.200,0.746,3.024,0.000,11.826,0.000,0.000,26.090
7128,4.200,0.736,3.029,0.000,11.845,0.000,0.000,26.051
7150,4.200,0.729,3.033,0.000,11.864,0.000,0.000,26.000
7172,4.200,0.717,3.038,0.000,11.883,0.000,0.000,26.011
7194,4.200,0.709,3.042,0.000,11.901,0.000,0.000,25.975
7216,4.200,0.701,3.046,0.000,11.919,0.000,0.000,26.006
7238,4.200,0.691,3.051,0.000,11.937,0.000,0.000,25.981
7260,4.200,0.683,3.055,0.000,11.954,0.000,0.000,25.934
7282,4.200,0.674,3.059,0.000,11.972,0.000,0.000,25.957
7304,4.200,0.665,3.063,0.000,11.989,0.000,0.000,25.855
7326,4.200,0.658,3.067,0.000,12.006,0.000,0.000,25.875
7348,4.200,0.649,3.071,0.000,12.023,0.000,0.000,25.858
7370,4.200,0.641,3.075,0.000,12.039,0.000,0.000,25.828
7392,4.200,0.633,3.079,0.000,12.055,0.000,0.000,25.804
7414,4.200,0.626,3.083,0.000,12.072,0.000,0.000,25.813
7436,4.200,0.618,3.087,0.000,12.088,0.000,0.000,25.793
7458,4.200,0.609,3.090,0.000,12.103,0.000,0.000,25.800
7480,4.200,0.602,3.094,0.000,12.119,0.000,0.000,25.782
7502,4.200,0.595,3.098,0.000,12.134,0.000,0.000,25.731
7524,4.200,0.588,3.101,0.000,12.149,0.000,0.000,25.768
7546,4.200,0.582,3.105,0.000,12.164,0.000,0.000,25.708
7568,4.200,0.574,3.108,0.000,12.179,0.000,0.000,25.735
7590,4.200,0.565,3.112,0.000,12.194,0.000,0.000,25.721
7612,4.200,0.559,3.115,0.000,12.208,0.000,0.000,25.713
7634,4.200,0.552,3.119,0.000,12.222,0.000,0.000,25.683
7656,4.200,0.478,3.122,0.000,12.236,0.000,0.000,25.682
7678,4.200,0.478,3.125,0.000,12.248,0.000,0.000,25.668
7700,4.200,0.478,3.128,0.000,12.260,0.000,0.000,25.680
7722,4.200,0.476,3.131,0.000,12.272,0.000,0.000,25.652
7744,4.200,0.475,3.133,0.000,12.285,0.000,0.000,25.694
7766,4.200,0.473,3.136,0.000,12.297,0.000,0.000,25.644
7788,4.200,0.470,3.139,0.000,12.309,0.000,0.000,25.654
7810,4.200,0.464,3.142,0.000,12.321,0.000,0.000,25.588
7832,4.200,0.459,3.145,0.000,12.333,0.000,0.000,25.585
7854,4.200,0.453,3.148,0.000,12.344,0.000,0.000,25.561
7876,4.200,0.447,3.150,0.000,12.356,0.000,0.000,25.590
7898,4.200,0.449,3.153,0.000,12.367,0.000,0.000,25.674
7920,4.200,0.451,3.156,0.000,12.379,0.000,0.000,25.697
7942,4.200,0.447,3.159,0.000,12.390,0.000,0.000,25.752
7964,4.200,0.394,3.161,0.000,12.402,0.000,0.000,25.781
7986,4.200,0.372,3.164,0.000,12.411,0.000,0.000,25.763
8008,4.200,0.367,3.166,0.000,12.421,0.000,0.000,25.708
8030,4.200,0.366,3.168,0.000,12.430,0.000,0.000,25.724
8052,4.200,0.354,3.170,0.000,12.439,0.000,0.000,25.681
8074,4.200,0.340,3.172,0.000,12.448,0.000,-0.001,25.669
8096,4.200,0.324,3.174,0.000,12.457,0.000,0.000,25.678
8118,4.200,0.332,3.176,0.000,12.465,0.000,0.000,25.629
8140,4.200,0.341,3.179,0.000,12.474,0.000,0.000,25.570
8162,4.200,0.331,3.181,0.000,12.483,0.000,0.000,25.593
8184,4.200,0.331,3.183,0.000,12.491,0.000,0.001,25.570
8206,4.201,0.319,3.185,0.000,12.500,0.000,0.001,25.565
8228,4.200,0.328,3.187,0.000,12.508,0.000,0.000,25.560
8250,4.200,0.312,3.189,0.000,12.516,0.000,0.001,25.591
8272,4.200,0.316,3.191,0.000,12.524,0.000,0.001,25.566
8294,4.200,0.321,3.192,0.000,12.533,0.000,0.000,25.494
8316,4.200,0.323,3.194,0.000,12.541,0.000,-0.001,25.531
8338,4.200,0.313,3.196,0.000,12.549,0.000,0.000,25.483
8360,4.199,0.296,3.198,0.000,12.557,0.000,0.000,25.523
8382,4.201,0.290,3.200,0.000,12.565,0.000,0.000,25.505
8404,4.200,0.290,3.202,0.000,12.572,0.000,0.000,25.522
8426,4.200,0.296,3.204,0.000,12.580,0.000,0.000,25.486
8448,4.200,0.286,3.205,0.000,12.587,0.000,0.001,25.481
8470,4.200,0.291,3.207,0.000,12.595,0.000,0.000,25.490
8492,4.200,0.290,3.209,0.000,12.602,0.000,0.000,25.461
8514,4.200,0.282,3.211,0.000,12.609,0.000,0.000,25.478
8536,4.200,0.298,3.213,0.000,12.617,0.000,0.000,25.550
8558,4.200,0.288,3.214,0.000,12.624,0.000,0.000,25.495
8580,4.200,0.279,3.216,0.000,12.631,0.000,0.000,25.513
8602,4.200,0.280,3.218,0.000,12.639,0.000,0.000,25.523
8624,4.200,0.276,3.219,0.000,12.646,0.000,0.000,25.522
8646,4.200,0.274,3.221,0.000,12.653,0.000,0.000,25.492
8668,4.200,0.275,3.223,0.000,12.660,0.000,0.000,25.517
8690,4.200,0.274,3.224,0.000,12.667,0.000,0.000,25.511
8712,4.200,0.254,3.226,0.000,12.674,0.000,0.000,25.505
8734,4.200,0.252,3.228,0.000,12.680,0.000,0.000,25.543
8756,4.200,0.261,3.229,0.000,12.687,0.000,0.001,25.528
8778,4.200,0.252,3.231,0.000,12.693,0.000,0.000,25.547
8800,4.200,0.251,3.232,0.000,12.700,0.000,0.000,25.556
8822,4.200,0.247,3.234,0.000,12.706,0.000,0.000,25.525
8844,4.200,0.238,3.235,0.000,12.712,0.000,0.000,25.529
8866,4.200,0.237,3.237,0.000,12.718,0.000,0.000,25.538
8888,4.200,0.238,3.238,0.000,12.725,0.000,0.000,25.577
8910,4.200,0.242,3.240,0.000,12.731,0.000,0.000,25.555
8932,4.200,0.229,3.241,0.000,12.737,0.000,0.000,25.545
8954,4.200,0.225,3.242,0.000,12.742,0.000,0.000,25.498
8976,4.200,0.225,3.244,0.000,12.748,0.000,0.000,25.567
8998,4.200,0.222,3.245,0.000,12.754,0.000,0.000,25.524
9020,4.200,0.211,3.246,0.000,12.759,0.000,0.000,25.530
9042,4.200,0.210,3.248,0.000,12.765,0.000,0.001,25.542
9064,4.200,0.207,3.249,0.000,12.770,0.000,0.000,25.551
9086,4.200,0.210,3.250,0.000,12.776,0.000,0.000,25.540
9108,4.200,0.211,3.252,0.000,12.781,0.000,0.000,25.546
9130,4.200,0.209,3.253,0.000,12.786,0.000,0.001,25.561
9152,4.200,0.207,3.254,0.000,12.792,0.000,0.000,25.590
9174,4.200,0.208,3.255,0.000,12.797,0.000,0.000,25.600
9196,4.200,0.204,3.257,0.000,12.802,0.000,0.000,25.563
9218,4.200,0.198,3.258,0.000,12.807,0.000,0.000,25.600
9240,4.200,0.196,3.259,0.000,12.812,0.000,0.000,25.533
9262,4.200,0.190,3.260,0.000,12.817,0.000,0.000,25.544
9284,4.200,0.186,3.261,0.000,12.822,0.000,0.000,25.560
9306,4.200,0.181,3.263,0.000,12.827,0.000,0.000,25.586
9328,4.200,0.182,3.264,0.000,12.832,0.000,0.000,25.591
9350,4.200,0.180,3.265,0.000,12.836,0.000,0.000,25.585
9372,4.200,0.178,3.266,0.000,12.841,0.000,0.000,25.564
9394,4.200,0.175,3.267,0.000,12.845,0.000,0.000,25.560
9416,4.200,0.173,3.268,0.000,12.850,0.000,0.000,25.531
9438,4.200,0.176,3.269,0.000,12.854,0.000,0.000,25.574
9460,4.200,0.170,3.270,0.000,12.859,0.000,0.000,25.585
9482,4.200,0.164,3.271,0.000,12.863,0.000,0.000,25.547
9504,4.200,0.162,3.272,0.000,12.867,0.000,0.000,25.582
9526,4.200,0.164,3.273,0.000,12.872,0.000,0.000,25.530
9548,4.200,0.159,3.274,0.000,12.876,0.000,0.000,25.563
9570,4.200,0.158,3.275,0.000,12.880,0.000,0.000,25.567
9592,4.200,0.156,3.276,0.000,12.884,0.000,0.000,25.545
9614,4.200,0.155,3.277,0.000,12.888,0.000,0.000,25.558
9636,4.200,0.144,3.278,0.000,12.892,0.000,0.000,25.531
9658,4.200,0.149,3.279,0.000,12.895,0.000,0.000,25.585
9680,4.200,0.147,3.280,0.000,12.899,0.000,-0.001,25.583
9702,4.200,0.142,3.281,0.000,12.903,0.000,0.000,25.553
9724,4.200,0.145,3.282,0.000,12.907,0.000,0.000,25.528
9746,4.200,0.139,3.282,0.000,12.910,0.000,0.000,25.515
9768,4.200,0.140,3.283,0.000,12.914,0.000,0.000,25.504
9790,4.200,0.139,3.284,0.000,12.917,0.000,0.000,25.527
9812,4.200,0.136,3.285,0.000,12.921,0.000,0.000,25.496
9834,4.200,0.136,3.286,0.000,12.924,0.000,0.000,25.499
9856,4.200,0.130,3.287,0.000,12.928,0.000,0.000,25.497
9878,4.200,0.135,3.287,0.000,12.931,0.000,0.000,25.502
9900,4.200,0.133,3.288,0.000,12.935,0.000,0.000,25.485
9922,4.200,0.131,3.289,0.000,12.938,0.000,0.000,25.499
9944,4.200,0.127,3.290,0.000,12.941,0.000,0.000,25.503
9966,4.200,0.126,3.291,0.000,12.945,0.000,0.000,25.484
9988,4.200,0.123,3.291,0.000,12.948,0.000,0.000,25.503
10010,4.200,0.119,3.292,0.000,12.951,0.000,0.000,25.474
10032,4.200,0.117,3.293,0.000,12.954,0.000,0.000,25.448
10054,4.200,0.114,3.294,0.000,12.957,0.000,0.000,25.468
10076,4.200,0.115,3.294,0.000,12.960,0.000,0.000,25.466
10098,4.200,0.112,3.295,0.000,12.963,0.000,0.000,25.460
10120,4.200,0.114,3.296,0.000,12.966,0.000,0.000,25.467
10142,4.200,0.114,3.296,0.000,12.969,0.000,0.000,25.431
10164,4.200,0.111,3.297,0.000,12.972,0.000,0.000,25.464
10186,4.200,0.113,3.298,0.000,12.974,0.000,0.000,25.434
10208,4.200,0.106,3.298,0.000,12.977,0.000,0.000,25.466
10230,4.200,0.102,3.299,0.000,12.980,0.000,0.000,25.439
10252,4.200,0.100,3.300,0.000,12.983,0.000,0.000,25.452
10274,4.200,0.097,3.300,0.000,12.985,0.000,0.000,25.454
10296,4.200,0.099,3.301,0.000,12.988,0.000,0.000,25.434
10318,4.200,0.099,3.301,0.000,12.990,0.000,0.000,25.417
10340,4.200,0.097,3.302,0.000,12.993,0.000,0.000,25.397
10362,4.200,0.099,3.303,0.000,12.995,0.000,0.000,25.463
10384,4.200,0.099,3.303,0.000,12.998,0.000,0.000,25.418
10406,4.200,0.096,3.304,0.000,13.000,0.000,0.000,25.440
10428,4.200,0.097,3.304,0.000,13.003,0.000,0.000,25.422
10450,4.200,0.095,3.305,0.000,13.005,0.000,0.000,25.406
10472,4.200,0.091,3.306,0.000,13.008,0.000,0.000,25.425
10494,4.200,0.091,3.306,0.000,13.010,0.000,0.000,25.396
10516,4.200,0.087,3.307,0.000,13.012,0.000,0.000,25.406
10538,4.200,0.087,3.307,0.000,13.015,0.000,0.000,25.379
10560,4.200,0.085,3.308,0.000,13.017,0.000,0.000,25.414
10582,4.200,0.086,3.308,0.000,13.019,0.000,0.000,25.377
10604,4.200,0.084,3.309,0.000,13.021,0.000,0.000,25.398
10626,4.200,0.081,3.309,0.000,13.023,0.000,0.000,25.367
10648,4.200,0.080,3.310,0.000,13.025,0.000,0.000,25.383
10670,4.200,0.077,3.310,0.000,13.027,0.000,0.000,25.357
10692,4.200,0.080,3.311,0.000,13.029,0.000,0.000,25.338
10714,4.200,0.074,3.311,0.000,13.031,0.000,0.000,25.358
10736,4.200,0.075,3.312,0.000,13.033,0.000,0.000,25.321
10758,4.200,0.077,3.312,0.000,13.035,0.000,0.000,25.359
10780,4.200,0.074,3.313,0.000,13.037,0.000,0.000,25.340
10802,4.200,0.071,3.313,0.000,13.039,0.000,0.000,25.318
10824,4.200,0.072,3.314,0.000,13.041,0.000,0.000,25.331
10846,4.200,0.071,3.314,0.000,13.043,0.000,0.000,25.304
10868,4.200,0.068,3.314,0.000,13.045,0.000,0.000,25.311
10890,4.200,0.067,3.315,0.000,13.047,0.000,0.000,25.295
10911,4.192,0.000,3.315,0.000,13.047,0.000,0.000,25.283
10933,4.192,0.000,3.315,0.000,13.047,0.000,0.000,25.306
10955,4.191,0.000,3.315,0.000,13.047,0.000,0.000,25.343
10977,4.190,0.000,3.315,0.000,13.047,0.000,0.000,25.282
10999,4.190,0.000,3.315,0.000,13.047,0.000,0.000,25.286
11021,4.189,0.000,3.315,0.000,13.047,0.000,0.000,25.245
11043,4.189,0.000,3.315,0.000,13.047,0.000,0.000,25.238
11065,4.189,0.000,3.315,0.000,13.047,0.000,0.000,25.252
11087,4.189,0.000,3.315,0.000,13.047,0.000,0.000,25.188
11109,4.188,0.000,3.315,0.000,13.047,0.000,0.000,25.202
11131,4.188,0.000,3.315,0.000,13.047,0.000,0.000,25.208
11153,4.188,0.000,3.315,0.000,13.047,0.000,0.000,25.270
11175,4.187,0.000,3.315,0.000,13.047,0.000,0.000,25.185
11197,4.187,0.000,3.315,0.000,13.047,0.000,0.000,25.183
11219,4.187,0.000,3.315,0.000,13.047,0.000,0.000,25.237
11241,4.187,0.000,3.315,0.000,13.047,0.000,0.000,25.227
11263,4.187,0.000,3.315,0.000,13.047,0.000,0.000,25.197
11285,4.186,0.000,3.315,0.000,13.047,0.000,0.000,25.216
11307,4.186,0.000,3.315,0.000,13.047,0.000,0.000,25.203
11329,4.186,0.000,3.315,0.000,13.047,0.000,0.000,25.180
11351,4.186,0.000,3.315,0.000,13.047,0.000,0.000,25.138
11373,4.186,0.000,3.315,0.000,13.047,0.000,0.000,25.168
11395,4.185,0.000,3.315,0.000,13.047,0.000,0.000,25.108
11417,4.185,0.000,3.315,0.000,13.047,0.000,0.000,25.123
11439,4.185,0.000,3.315,0.000,13.047,0.000,0.000,25.085
11461,4.185,0.000,3.315,0.000,13.047,0.000,0.000,25.116
11483,4.185,0.000,3.315,0.000,13.047,0.000,0.000,25.099
11505,4.185,0.000,3.315,0.000,13.047,0.000,0.000,25.071
11527,4.185,0.000,3.315,0.000,13.047,0.000,0.000,25.125
11549,4.184,0.000,3.315,0.000,13.047,0.000,0.000,25.118
11571,4.184,0.000,3.315,0.000,13.047,0.000,0.000,25.069
11593,4.184,0.000,3.315,0.000,13.047,0.000,0.000,25.126
11615,4.184,0.000,3.315,0.000,13.047,0.000,0.000,25.081
11637,4.184,0.000,3.315,0.000,13.047,0.000,0.000,25.077
11659,4.184,0.000,3.315,0.000,13.047,0.000,0.000,25.102
11681,4.184,0.000,3.315,0.000,13.047,0.000,0.000,25.090
11703,4.183,0.000,3.315,0.000,13.047,0.000,0.000,25.048
11725,4.183,0.000,3.315,0.000,13.047,0.000,0.000,25.101
11747,4.183,0.000,3.315,0.000,13.047,0.000,0.000,25.053
11769,4.183,0.000,3.315,0.000,13.047,0.000,0.000,25.080
11791,4.183,0.000,3.315,0.000,13.047,0.000,0.000,25.022
11813,4.183,0.000,3.315,0.000,13.047,0.000,0.000,25.041
11835,4.183,0.000,3.315,0.000,13.047,0.000,0.000,24.986
11857,4.183,0.000,3.315,0.000,13.047,0.000,0.000,25.007
11879,4.183,0.000,3.315,0.000,13.047,0.000,0.000,25.007
11901,4.182,0.000,3.315,0.000,13.047,0.000,0.000,25.023
11923,4.182,0.000,3.315,0.000,13.047,0.000,0.000,25.026
11945,4.182,0.000,3.315,0.000,13.047,0.000,0.000,24.999
11967,4.182,0.000,3.315,0.000,13.047,0.000,0.000,24.976
11989,4.182,0.000,3.315,0.000,13.047,0.000,0.000,24.980
12011,4.182,0.000,3.315,0.000,13.047,0.000,0.000,25.000
12033,4.182,0.000,3.315,0.000,13.047,0.000,0.000,25.027
12055,4.182,0.000,3.315,0.000,13.047,0.000,0.000,24.983
12077,4.182,0.000,3.315,0.000,13.047,0.000,0.000,24.984
12099,4.182,0.000,3.315,0.000,13.047,0.000,0.000,24.927
12121,4.181,0.000,3.315,0.000,13.047,0.000,0.000,24.960
12143,4.181,0.000,3.315,0.000,13.047,0.000,0.000,24.932
12165,4.181,0.000,3.315,0.000,13.047,0.000,0.000,24.947
12187,4.181,0.000,3.315,0.000,13.047,0.000,0.000,24.934
12209,4.181,0.000,3.315,0.000,13.047,0.000,0.000,24.939
12231,4.181,0.000,3.315,0.000,13.047,0.000,0.000,24.968
12253,4.181,0.000,3.315,0.000,13.047,0.000,0.000,24.923
12275,4.181,0.000,3.315,0.000,13.047,0.000,0.000,24.952
12297,4.181,0.000,3.315,0.000,13.047,0.000,0.000,24.920
12319,4.181,0.000,3.315,0.000,13.047,0.000,0.000,24.920
12341,4.181,0.000,3.315,0.000,13.047,0.000,0.000,24.900
12363,4.180,0.000,3.315,0.000,13.047,0.000,0.000,24.923
12385,4.181,0.000,3.315,0.000,13.047,0.000,0.000,24.919
12407,4.180,0.000,3.315,0.000,13.047,0.000,0.000,24.913
12429,4.181,0.000,3.315,0.000,13.047,0.000,0.000,24.916
12451,4.180,0.000,3.315,0.000,13.047,0.000,0.000,24.876
12473,4.180,0.000,3.315,0.000,13.047,0.000,0.000,24.879
12495,4.180,0.000,3.315,0.000,13.047,0.000,0.000,24.910
12517,4.180,0.000,3.315,0.000,13.047,0.000,0.000,24.905
12539,4.180,0.000,3.315,0.000,13.047,0.000,0.000,24.891
12561,4.180,0.000,3.315,0.000,13.047,0.000,0.000,24.872
12583,4.180,0.000,3.315,0.000,13.047,0.000,0.000,24.877
12605,4.180,0.000,3.315,0.000,13.047,0.000,0.000,24.856
12627,4.180,0.000,3.315,0.000,13.047,0.000,0.000,24.867
12649,4.180,0.000,3.315,0.000,13.047,0.000,0.000,24.895
12671,4.180,0.000,3.315,0.000,13.047,0.000,0.000,24.866
12693,4.180,0.000,3.315,0.000,13.047,0.000,0.000,24.856
12715,4.179,0.000,3.315,0.000,13.047,0.000,0.000,24.880
12737,4.179,0.000,3.315,0.000,13.047,0.000,0.000,24.883
12759,4.179,0.000,3.315,0.000,13.047,0.000,0.000,24.818
12781,4.179,0.000,3.315,0.000,13.047,0.000,0.000,24.897
12803,4.179,0.000,3.315,0.000,13.047,0.000,0.000,24.869
12825,4.179,0.000,3.315,0.000,13.047,0.000,0.000,24.869
12847,4.179,0.000,3.315,0.000,13.047,0.000,0.000,24.847
12869,4.179,0.000,3.315,0.000,13.047,0.000,0.000,24.876
12891,4.179,0.000,3.315,0.000,13.047,0.000,0.000,24.805
12913,4.179,0.000,3.315,0.000,13.047,0.000,0.000,24.861
12935,4.179,0.000,3.315,0.000,13.047,0.000,0.000,24.891
12957,4.179,0.000,3.315,0.000,13.047,0.000,0.000,24.868
12979,4.179,0.000,3.315,0.000,13.047,0.000,0.000,24.868
13001,4.179,0.000,3.315,0.000,13.047,0.000,0.000,24.858
13023,4.179,0.000,3.315,0.000,13.047,0.000,0.000,24.854
13045,4.179,0.000,3.315,0.000,13.047,0.000,0.000,24.822
13067,4.179,0.000,3.315,0.000,13.047,0.000,0.000,24.884
13089,4.178,0.000,3.315,0.000,13.047,0.000,0.000,24.883
13111,4.179,0.000,3.315,0.000,13.047,0.000,0.000,24.862
13133,4.178,0.000,3.315,0.000,13.047,0.000,0.000,24.837
13155,4.178,0.000,3.315,0.000,13.047,0.000,0.000,24.871
13177,4.178,0.000,3.315,0.000,13.047,0.000,0.000,24.832
13199,4.178,0.000,3.315,0.000,13.047,0.000,0.000,24.896
13221,4.178,0.000,3.315,0.000,13.047,0.000,0.000,24.836
13243,4.178,0.000,3.315,0.000,13.047,0.000,0.000,24.868
13265,4.178,0.000,3.315,0.000,13.047,0.000,0.000,24.877
13287,4.178,0.000,3.315,0.000,13.047,0.000,0.000,24.876
13309,4.178,0.000,3.315,0.000,13.047,0.000,0.000,24.844
13331,4.178,0.000,3.315,0.000,13.047,0.000,0.000,24.849
13353,4.178,0.000,3.315,0.000,13.047,0.000,0.000,24.863
13375,4.178,0.000,3.315,0.000,13.047,0.000,0.000,24.862
13397,4.178,0.000,3.315,0.000,13.047,0.000,0.000,24.847
13419,4.178,0.000,3.315,0.000,13.047,0.000,0.000,24.816
13441,4.178,0.000,3.315,0.000,13.047,0.000,0.000,24.840
13463,4.178,0.000,3.315,0.000,13.047,0.000,0.000,24.830
13485,4.178,0.000,3.315,0.000,13.047,0.000,0.000,24.843
13507,4.178,0.000,3.315,0.000,13.047,0.000,0.000,24.877
13529,4.178,0.000,3.315,0.000,13.047,0.000,0.000,24.894
13551,4.177,0.000,3.315,0.000,13.047,0.000,0.000,24.866
13573,4.177,0.000,3.315,0.000,13.047,0.000,0.000,24.845
13595,4.177,0.000,3.315,0.000,13.047,0.000,0.000,24.845
13617,4.177,0.000,3.315,0.000,13.047,0.000,0.000,24.858
13639,4.177,0.000,3.315,0.000,13.047,0.000,0.000,24.845
13661,4.177,0.000,3.315,0.000,13.047,0.000,0.000,24.845
13683,4.177,0.000,3.315,0.000,13.047,0.000,0.000,24.896
13705,4.177,0.000,3.315,0.000,13.047,0.000,0.000,24.869
13727,4.177,0.000,3.315,0.000,13.047,0.000,0.000,24.886
13749,4.177,0.000,3.315,0.000,13.047,0.000,0.000,24.880
13771,4.177,0.000,3.315,0.000,13.047,0.000,0.000,24.890
13793,4.177,0.000,3.315,0.000,13.047,0.000,0.000,24.894
13815,4.177,0.000,3.315,0.000,13.047,0.000,0.000,24.910
13837,4.177,0.000,3.315,0.000,13.047,0.000,0.000,24.866
13859,4.177,0.000,3.315,0.000,13.047,0.000,0.000,24.827
13881,4.177,0.000,3.315,0.000,13.047,0.000,0.000,24.860
13903,4.177,0.000,3.315,0.000,13.047,0.000,0.000,24.877
13925,4.177,0.000,3.315,0.000,13.047,0.000,0.000,24.857
13947,4.177,0.000,3.315,0.000,13.047,0.000,0.000,24.885
13969,4.177,0.000,3.315,0.000,13.047,0.000,0.000,24.887
13991,4.177,0.000,3.315,0.000,13.047,0.000,0.000,24.839
14013,4.177,0.000,3.315,0.000,13.047,0.000,0.000,24.826
14035,4.177,0.000,3.315,0.000,13.047,0.000,0.000,24.813
14057,4.177,0.000,3.315,0.000,13.047,0.000,0.000,24.876
14079,4.177,0.000,3.315,0.000,13.047,0.000,0.000,24.868
14101,4.176,0.000,3.315,0.000,13.047,0.000,0.000,24.857
14123,4.176,0.000,3.315,0.000,13.047,0.000,0.000,24.854
14145,4.176,0.000,3.315,0.000,13.047,0.000,0.000,24.869
14167,4.176,0.000,3.315,0.000,13.047,0.000,0.000,24.818
14189,4.176,0.000,3.315,0.000,13.047,0.000,0.000,24.844
14211,4.176,0.000,3.315,0.000,13.047,0.000,0.000,24.823
14233,4.176,0.000,3.315,0.000,13.047,0.000,0.000,24.881
14255,4.176,0.000,3.315,0.000,13.047,0.000,0.000,24.867
14277,4.176,0.000,3.315,0.000,13.047,0.000,0.000,24.869
14299,4.176,0.000,3.315,0.000,13.047,0.000,0.000,24.844
14321,4.176,0.000,3.315,0.000,13.047,0.000,0.000,24.862
14343,4.176,0.000,3.315,0.000,13.047,0.000,0.000,24.846
14365,4.176,0.000,3.315,0.000,13.047,0.000,0.000,24.863
14387,4.176,0.000,3.315,0.000,13.047,0.000,0.000,24.869
14409,4.176,0.000,3.315,0.000,13.047,0.000,0.000,24.860
14431,4.176,0.000,3.315,0.000,13.047,0.000,0.000,24.839
14453,4.176,0.000,3.315,0.000,13.047,0.000,0.000,24.844
14475,4.176,0.000,3.315,0.000,13.047,0.000,0.000,24.843
14497,4.176,0.000,3.315,0.000,13.047,0.000,0.000,24.862
14518,3.400,-10.047,3.315,0.050,13.047,0.172,-0.002,25.702
14540,3.355,-10.047,3.315,0.112,13.047,0.379,-0.005,27.487
14562,3.329,-10.046,3.315,0.173,13.047,0.585,-0.002,29.046
14584,3.302,-10.046,3.315,0.234,13.047,0.788,-0.001,30.908
14606,3.277,-10.046,3.315,0.296,13.047,0.990,-0.001,32.590
14628,3.256,-10.047,3.315,0.357,13.047,1.191,-0.001,33.926
14650,3.233,-10.046,3.315,0.419,13.047,1.390,-0.001,35.370
14672,3.210,-10.046,3.315,0.480,13.047,1.588,-0.001,36.690
14694,3.188,-10.047,3.315,0.541,13.047,1.784,-0.001,37.932
14716,3.166,-10.047,3.315,0.603,13.047,1.979,-0.001,38.917
14738,3.145,-10.047,3.315,0.664,13.047,2.173,-0.001,40.038
14760,3.123,-10.047,3.315,0.726,13.047,2.365,-0.002,41.126
14782,3.103,-10.046,3.315,0.787,13.047,2.556,-0.001,42.059
14804,3.082,-10.047,3.315,0.848,13.047,2.746,-0.001,42.956
14826,3.062,-10.047,3.315,0.910,13.047,2.935,-0.001,43.861
14848,3.042,-10.047,3.315,0.971,13.047,3.122,-0.001,44.751
14870,3.021,-10.047,3.315,1.033,13.047,3.308,-0.001,45.562
14892,3.001,-10.047,3.315,1.094,13.047,3.493,-0.001,46.393
14914,2.981,-10.048,3.315,1.155,13.047,3.677,-0.001,47.096
14936,2.961,-10.048,3.315,1.217,13.047,3.859,-0.001,47.922
14958,2.940,-10.047,3.315,1.278,13.047,4.040,-0.001,48.585
14980,2.919,-10.047,3.315,1.340,13.047,4.220,-0.001,49.191
15002,2.900,-10.047,3.315,1.401,13.047,4.399,-0.001,49.833
15024,2.880,-10.048,3.315,1.462,13.047,4.576,-0.001,50.592
15046,2.858,-10.049,3.315,1.524,13.047,4.753,-0.001,51.228
15068,2.838,-10.048,3.315,1.585,13.047,4.927,-0.001,51.736
15090,2.815,-10.049,3.315,1.647,13.047,5.101,-0.001,52.516
15112,2.793,-10.049,3.315,1.708,13.047,5.273,-0.001,53.109
15134,2.772,-10.049,3.315,1.769,13.047,5.444,-0.001,53.599
15156,2.747,-10.048,3.315,1.831,13.047,5.614,-0.001,54.070
15178,2.726,-10.049,3.315,1.892,13.047,5.782,-0.001,54.600
15200,2.703,-10.049,3.315,1.954,13.047,5.948,-0.001,55.326
15222,2.679,-10.049,3.315,2.015,13.047,6.114,-0.002,56.068
15244,2.655,-10.049,3.315,2.076,13.047,6.278,-0.002,56.371
15266,2.630,-10.049,3.315,2.138,13.047,6.440,-0.002,57.174
15288,2.607,-10.050,3.315,2.199,13.047,6.601,-0.001,57.728
15310,2.583,-10.050,3.315,2.261,13.047,6.760,-0.001,58.316
15332,2.557,-10.050,3.315,2.322,13.047,6.918,-0.001,58.931
15354,2.532,-10.050,3.315,2.384,13.047,7.074,-0.001,59.538
15376,2.504,-10.050,3.315,2.445,13.047,7.229,-0.001,60.251
15398,3.376,0.000,3.315,2.456,13.047,7.256,0.004,60.558
15420,3.425,0.000,3.315,2.456,13.047,7.256,0.001,60.618
15442,3.438,0.000,3.315,2.456,13.047,7.256,0.000,59.698
15464,3.443,0.000,3.315,2.456,13.047,7.256,0.000,58.189
15486,3.447,0.000,3.315,2.456,13.047,7.256,0.000,56.441
15508,3.451,0.000,3.315,2.456,13.047,7.256,0.000,54.877
15530,3.457,0.000,3.315,2.456,13.047,7.256,0.000,53.334
15552,3.463,0.000,3.315,2.456,13.047,7.256,0.000,51.572
15574,3.470,0.000,3.315,2.456,13.047,7.256,0.000,49.952
15596,3.477,0.000,3.315,2.456,13.047,7.256,0.000,48.920
15618,3.482,0.000,3.315,2.456,13.047,7.256,0.000,47.215
15640,3.487,0.000,3.315,2.456,13.047,7.256,0.000,45.949
15662,3.491,0.000,3.315,2.456,13.047,7.256,0.000,44.726
15684,3.494,0.000,3.315,2.456,13.047,7.256,0.000,43.630
15706,3.497,0.000,3.315,2.456,13.047,7.256,0.000,42.598
15728,3.499,0.000,3.315,2.456,13.047,7.256,0.000,41.489
15750,3.501,0.000,3.315,2.456,13.047,7.256,0.000,40.501
15772,3.503,0.000,3.315,2.456,13.047,7.256,0.000,39.728
15794,3.505,0.000,3.315,2.456,13.047,7.256,0.000,38.832
15816,3.506,0.000,3.315,2.456,13.047,7.256,0.000,38.040
15838,3.507,0.000,3.315,2.456,13.047,7.256,0.000,37.329
15860,3.509,0.000,3.315,2.456,13.047,7.256,0.000,36.672
15882,3.510,0.000,3.315,2.456,13.047,7.256,0.000,35.936
15904,3.511,0.000,3.315,2.456,13.047,7.256,0.000,35.284
15926,3.511,0.000,3.315,2.456,13.047,7.256,0.000,34.779
15948,3.512,0.000,3.315,2.456,13.047,7.256,0.000,34.263
15970,3.513,0.000,3.315,2.456,13.047,7.256,0.000,33.726
15992,3.514,0.000,3.315,2.456,13.047,7.256,0.000,33.242
16014,3.514,0.000,3.315,2.456,13.047,7.256,0.000,32.749
16036,3.515,0.000,3.315,2.456,13.047,7.256,0.000,32.381
16058,3.516,0.000,3.315,2.456,13.047,7.256,0.000,31.988
16080,3.516,0.000,3.315,2.456,13.047,7.256,0.000,31.571
16102,3.517,0.000,3.315,2.456,13.047,7.256,0.000,31.270
16124,3.517,0.000,3.315,2.456,13.047,7.256,0.000,30.945
16146,3.518,0.000,3.315,2.456,13.047,7.256,0.000,30.578
16168,3.518,0.000,3.315,2.456,13.047,7.256,0.000,30.262
16190,3.518,0.000,3.315,2.456,13.047,7.256,0.000,30.118
16212,3.519,0.000,3.315,2.456,13.047,7.256,0.000,29.793
16234,3.519,0.000,3.315,2.456,13.047,7.256,0.000,29.541
16256,3.519,0.000,3.315,2.456,13.047,7.256,0.000,29.277
16278,3.520,0.000,3.315,2.456,13.047,7.256,0.000,29.037
16300,3.520,0.000,3.315,2.456,13.047,7.256,0.000,28.826
16322,3.520,0.000,3.315,2.456,13.047,7.256,0.000,28.669
16344,3.521,0.000,3.315,2.456,13.047,7.256,0.000,28.454
16366,3.521,0.000,3.315,2.456,13.047,7.256,0.000,28.286
16388,3.521,0.000,3.315,2.456,13.047,7.256,0.000,28.140
16410,3.521,0.000,3.315,2.456,13.047,7.256,0.000,28.023
16432,3.521,0.000,3.315,2.456,13.047,7.256,0.000,27.803
16454,3.522,0.000,3.315,2.456,13.047,7.256,0.000,27.672
16476,3.522,0.000,3.315,2.456,13.047,7.256,0.000,27.521
16498,3.522,0.000,3.315,2.456,13.047,7.256,0.000,27.387
16520,3.522,0.000,3.315,2.456,13.047,7.256,0.000,27.286
16542,3.522,0.000,3.315,2.456,13.047,7.256,0.000,27.226
16564,3.523,0.000,3.315,2.456,13.047,7.256,0.000,27.057
16586,3.523,0.000,3.315,2.456,13.047,7.256,0.000,26.985
16608,3.523,0.000,3.315,2.456,13.047,7.256,0.000,26.838
16630,3.523,0.000,3.315,2.456,13.047,7.256,0.000,26.787
16652,3.523,0.000,3.315,2.456,13.047,7.256,0.000,26.674
16674,3.523,0.000,3.315,2.456,13.047,7.256,0.000,26.593
16696,3.523,0.000,3.315,2.456,13.047,7.256,0.000,26.513
16718,3.523,0.000,3.315,2.456,13.047,7.256,0.000,26.446
16740,3.524,0.000,3.315,2.456,13.047,7.256,0.000,26.342
16762,3.524,0.000,3.315,2.456,13.047,7.256,0.000,26.291
16784,3.524,0.000,3.315,2.456,13.047,7.256,0.000,26.229
16806,3.524,0.000,3.315,2.456,13.047,7.256,0.000,26.178
16828,3.524,0.000,3.315,2.456,13.047,7.256,0.000,26.098
16850,3.524,0.000,3.315,2.456,13.047,7.256,0.000,26.090
16872,3.524,0.000,3.315,2.456,13.047,7.256,0.000,25.984
16894,3.524,0.000,3.315,2.456,13.047,7.256,0.000,25.990
16916,3.524,0.000,3.315,2.456,13.047,7.256,0.000,25.884
16938,3.524,0.000,3.315,2.456,13.047,7.256,0.000,25.829
16960,3.524,0.000,3.315,2.456,13.047,7.256,0.000,25.782
16982,3.525,0.000,3.315,2.456,13.047,7.256,0.000,25.737
17004,3.525,0.000,3.315,2.456,13.047,7.256,0.000,25.737
17026,3.525,0.000,3.315,2.456,13.047,7.256,0.000,25.700
17048,3.525,0.000,3.315,2.456,13.047,7.256,0.000,25.648
17070,3.525,0.000,3.315,2.456,13.047,7.256,0.000,25.605
17092,3.525,0.000,3.315,2.456,13.047,7.256,0.000,25.597
17114,3.525,0.000,3.315,2.456,13.047,7.256,0.000,25.567
17136,3.525,0.000,3.315,2.456,13.047,7.256,0.000,25.573
17158,3.525,0.000,3.315,2.456,13.047,7.256,0.000,25.498
17180,3.525,0.000,3.315,2.456,13.047,7.256,0.000,25.470
17202,3.525,0.000,3.315,2.456,13.047,7.256,0.000,25.469
17224,3.525,0.000,3.315,2.456,13.047,7.256,0.000,25.449
17246,3.525,0.000,3.315,2.456,13.047,7.256,0.000,25.406
17268,3.525,0.000,3.315,2.456,13.047,7.256,0.000,25.398
17290,3.526,0.000,3.315,2.456,13.047,7.256,0.000,25.362
17312,3.526,0.000,3.315,2.456,13.047,7.256,0.000,25.343
17334,3.526,0.000,3.315,2.456,13.047,7.256,0.000,25.333
17356,3.526,0.000,3.315,2.456,13.047,7.256,0.000,25.311
17378,3.526,0.000,3.315,2.456,13.047,7.256,0.000,25.274
17400,3.526,0.000,3.315,2.456,13.047,7.256,0.000,25.297
17422,3.526,0.000,3.315,2.456,13.047,7.256,0.000,25.265
17444,3.526,0.000,3.315,2.456,13.047,7.256,0.000,25.242
17466,3.526,0.000,3.315,2.456,13.047,7.256,0.000,25.230
17488,3.526,0.000,3.315,2.456,13.047,7.256,0.000,25.216
17510,3.526,0.000,3.315,2.456,13.047,7.256,0.000,25.221
17532,3.526,0.000,3.315,2.456,13.047,7.256,0.000,25.200
17554,3.526,0.000,3.315,2.456,13.047,7.256,0.000,25.179
17576,3.526,0.000,3.315,2.456,13.047,7.256,0.000,25.187
17598,3.526,0.000,3.315,2.456,13.047,7.256,0.000,25.200
17620,3.526,0.000,3.315,2.456,13.047,7.256,0.000,25.182
17642,3.526,0.000,3.315,2.456,13.047,7.256,0.000,25.157
17664,3.526,0.000,3.315,2.456,13.047,7.256,0.000,25.142
17686,3.526,0.000,3.315,2.456,13.047,7.256,0.000,25.156
17708,3.526,0.000,3.315,2.456,13.047,7.256,0.000,25.128
17730,3.527,0.000,3.315,2.456,13.047,7.256,0.000,25.089
17752,3.527,0.000,3.315,2.456,13.047,7.256,0.000,25.146
17774,3.527,0.000,3.315,2.456,13.047,7.256,0.000,25.123
17796,3.527,0.000,3.315,2.456,13.047,7.256,0.000,25.099
17818,3.527,0.000,3.315,2.456,13.047,7.256,0.000,25.067
17840,3.527,0.000,3.315,2.456,13.047,7.256,0.000,25.098
17862,3.527,0.000,3.315,2.456,13.047,7.256,0.000,25.061
17884,3.527,0.000,3.315,2.456,13.047,7.256,0.000,25.079
17906,3.527,0.000,3.315,2.456,13.047,7.256,0.000,25.069
17928,3.527,0.000,3.315,2.456,13.047,7.256,0.000,25.090
17950,3.527,0.000,3.315,2.456,13.047,7.256,0.000,25.054
17972,3.527,0.000,3.315,2.456,13.047,7.256,0.000,25.055
17994,3.527,0.000,3.315,2.456,13.047,7.256,0.000,25.049
18016,3.527,0.000,3.315,2.456,13.047,7.256,0.000,25.083
18038,3.527,0.000,3.315,2.456,13.047,7.256,0.000,25.073
18060,3.527,0.000,3.315,2.456,13.047,7.256,0.000,25.021
18082,3.527,0.000,3.315,2.456,13.047,7.256,0.000,25.057
18104,3.527,0.000,3.315,2.456,13.047,7.256,0.000,25.042
18126,3.527,0.000,3.315,2.456,13.047,7.256,0.000,25.002
18148,3.527,0.000,3.315,2.456,13.047,7.256,0.000,25.017
18170,3.527,0.000,3.315,2.456,13.047,7.256,0.000,25.026
18192,3.527,0.000,3.315,2.456,13.047,7.256,0.000,25.035
18214,3.527,0.000,3.315,2.456,13.047,7.256,0.000,25.010
18236,3.527,0.000,3.315,2.456,13.047,7.256,0.000,25.016
18258,3.527,0.000,3.315,2.456,13.047,7.256,0.000,25.011
18280,3.527,0.000,3.315,2.456,13.047,7.256,0.000,25.005
18302,3.527,0.000,3.315,2.456,13.047,7.256,0.000,24.994
18324,3.527,0.000,3.315,2.456,13.047,7.256,0.000,24.967
18346,3.527,0.000,3.315,2.456,13.047,7.256,0.000,24.999
18368,3.527,0.000,3.315,2.456,13.047,7.256,0.000,24.985
18390,3.527,0.000,3.315,2.456,13.047,7.256,0.000,25.029
18412,3.527,0.000,3.315,2.456,13.047,7.256,0.000,24.980
18434,3.527,0.000,3.315,2.456,13.047,7.256,0.000,24.980
18456,3.527,0.000,3.315,2.456,13.047,7.256,0.000,24.995
18478,3.527,0.000,3.315,2.456,13.047,7.256,0.000,24.963
18500,3.527,0.000,3.315,2.456,13.047,7.256,0.000,24.976
18522,3.528,0.000,3.315,2.456,13.047,7.256,0.000,24.957
18544,3.528,0.000,3.315,2.456,13.047,7.256,0.000,25.009
18566,3.528,0.000,3.315,2.456,13.047,7.256,0.000,24.958
18588,3.528,0.000,3.315,2.456,13.047,7.256,0.000,24.958
18610,3.528,0.000,3.315,2.456,13.047,7.256,0.000,24.970
18632,3.528,0.000,3.315,2.456,13.047,7.256,0.000,24.974
18654,3.528,0.000,3.315,2.456,13.047,7.256,0.000,25.011
18676,3.528,0.000,3.315,2.456,13.047,7.256,0.000,25.004
18698,3.528,0.000,3.315,2.456,13.047,7.256,0.000,24.993
18720,3.528,0.000,3.315,2.456,13.047,7.256,0.000,24.964
18742,3.528,0.000,3.315,2.456,13.047,7.256,0.000,25.013
18764,3.528,0.000,3.315,2.456,13.047,7.256,0.000,25.050
18786,3.528,0.000,3.315,2.456,13.047,7.256,0.000,25.008
18808,3.528,0.000,3.315,2.456,13.047,7.256,0.000,25.001
18830,3.528,0.000,3.315,2.456,13.047,7.256,0.000,24.971
18852,3.528,0.000,3.315,2.456,13.047,7.256,0.000,24.994
18874,3.528,0.000,3.315,2.456,13.047,7.256,0.000,25.016
18896,3.528,0.000,3.315,2.456,13.047,7.256,0.000,25.025
18918,3.528,0.000,3.315,2.456,13.047,7.256,0.000,25.034
18940,3.528,0.000,3.315,2.456,13.047,7.256,0.000,25.052
18962,3.528,0.000,3.315,2.456,13.047,7.256,0.000,25.163
18980,3.528,0.000,3.315,2.456,13.047,7.256,0.000,25.169