File: data/T25/3C/6.csv
time_s,voltage_v,current_a,chargecapacity_ah,dischargecapacity_ah,charge_energy_wh,discharge_energy_wh,voltagedot_v_per_s,temp_degc
1,2.998,0.000,0.000,0.000,0.000,0.000,0.000,25.560
22,2.998,0.000,0.000,0.000,0.000,0.000,0.000,25.409
43,2.998,0.000,0.000,0.000,0.000,0.000,0.000,25.279
63,3.218,1.625,0.001,0.000,0.004,0.001,0.005,25.205
84,3.286,1.625,0.011,0.000,0.035,0.001,0.002,25.140
105,3.331,1.625,0.020,0.000,0.067,0.001,0.002,25.174
126,3.366,1.625,0.030,0.000,0.098,0.001,0.001,25.299
147,3.396,1.625,0.039,0.000,0.130,0.001,0.001,25.682
168,3.422,1.625,0.049,0.000,0.163,0.001,0.001,25.910
189,3.445,1.625,0.058,0.000,0.195,0.001,0.001,25.871
210,3.465,1.625,0.068,0.000,0.228,0.001,0.001,25.761
231,3.484,1.625,0.077,0.000,0.261,0.001,0.001,25.621
252,3.500,1.625,0.087,0.000,0.294,0.001,0.001,25.589
273,3.515,1.625,0.096,0.000,0.327,0.001,0.001,25.510
294,3.528,1.625,0.106,0.000,0.361,0.001,0.001,25.515
315,3.539,1.625,0.115,0.000,0.394,0.001,0.000,25.524
336,3.546,1.625,0.125,0.000,0.428,0.001,0.000,25.525
357,3.549,1.625,0.134,0.000,0.461,0.001,0.000,25.566
378,3.551,1.625,0.144,0.000,0.495,0.001,0.000,25.623
399,3.552,1.625,0.153,0.000,0.529,0.001,0.000,25.761
420,3.553,1.625,0.163,0.000,0.563,0.001,0.000,25.904
441,3.554,1.625,0.172,0.000,0.596,0.001,0.000,26.238
462,3.555,1.625,0.182,0.000,0.630,0.001,0.000,26.269
483,3.557,1.625,0.191,0.000,0.664,0.001,0.000,26.215
504,3.558,1.625,0.200,0.000,0.697,0.001,0.000,26.114
525,3.560,1.625,0.210,0.000,0.731,0.001,0.000,25.958
546,3.562,1.625,0.219,0.000,0.765,0.001,0.000,25.895
567,3.564,1.625,0.229,0.000,0.799,0.001,0.000,25.829
588,3.567,1.625,0.238,0.000,0.832,0.001,0.000,25.883
609,3.569,1.625,0.248,0.000,0.866,0.001,0.000,25.862
630,3.571,1.625,0.257,0.000,0.900,0.001,0.000,25.856
651,3.573,1.625,0.267,0.000,0.934,0.001,0.000,25.939
672,3.576,1.625,0.276,0.000,0.968,0.001,0.000,25.953
693,3.578,1.625,0.286,0.000,1.002,0.001,0.000,25.949
714,3.580,1.625,0.295,0.000,1.036,0.001,0.000,25.950
735,3.582,1.625,0.305,0.000,1.070,0.001,0.000,25.994
756,3.584,1.625,0.314,0.000,1.104,0.001,0.000,26.051
777,3.587,1.625,0.324,0.000,1.138,0.001,0.000,26.008
798,3.589,1.625,0.333,0.000,1.172,0.001,0.000,26.011
819,3.591,1.625,0.343,0.000,1.206,0.001,0.000,26.090
840,3.593,1.625,0.352,0.000,1.240,0.001,0.000,26.077
861,3.596,1.625,0.362,0.000,1.274,0.001,0.000,26.041
882,3.598,1.625,0.371,0.000,1.308,0.001,0.000,26.107
903,3.600,1.625,0.381,0.000,1.342,0.001,0.000,26.095
924,3.602,1.625,0.390,0.000,1.376,0.001,0.000,26.140
945,3.604,1.625,0.400,0.000,1.410,0.001,0.000,26.136
966,3.607,1.625,0.409,0.000,1.445,0.001,0.000,26.085
987,3.609,1.625,0.419,0.000,1.479,0.001,0.000,26.104
1008,3.611,1.625,0.428,0.000,1.513,0.001,0.000,26.114
1029,3.613,1.625,0.438,0.000,1.547,0.001,0.000,26.145
1050,3.616,1.625,0.447,0.000,1.582,0.001,0.000,26.134
1071,3.618,1.625,0.456,0.000,1.616,0.001,0.000,26.149
1092,3.620,1.625,0.466,0.000,1.650,0.001,0.000,26.092
1113,3.623,1.625,0.475,0.000,1.685,0.001,0.000,26.136
1134,3.625,1.625,0.485,0.000,1.719,0.001,0.000,26.179
1155,3.627,1.625,0.494,0.000,1.753,0.001,0.000,26.070
1176,3.630,1.625,0.504,0.000,1.788,0.001,0.000,26.072
1197,3.632,1.625,0.513,0.000,1.822,0.001,0.000,26.105
1218,3.634,1.625,0.523,0.000,1.857,0.001,0.000,26.074
1239,3.636,1.625,0.532,0.000,1.891,0.001,0.000,26.090
1260,3.638,1.625,0.542,0.000,1.925,0.001,0.000,26.062
1281,3.640,1.625,0.551,0.000,1.960,0.001,0.000,26.063
1302,3.642,1.625,0.561,0.000,1.995,0.001,0.000,26.099
1323,3.644,1.625,0.570,0.000,2.029,0.001,0.000,26.055
1344,3.646,1.625,0.580,0.000,2.064,0.001,0.000,26.015
1365,3.648,1.625,0.589,0.000,2.098,0.001,0.000,26.022
1386,3.650,1.625,0.599,0.000,2.133,0.001,0.000,26.065
1407,3.652,1.625,0.608,0.000,2.167,0.001,0.000,26.026
1428,3.653,1.625,0.618,0.000,2.202,0.001,0.000,26.048
1449,3.655,1.625,0.627,0.000,2.237,0.001,0.000,25.990
1470,3.656,1.625,0.637,0.000,2.271,0.001,0.000,26.033
1491,3.658,1.625,0.646,0.000,2.306,0.001,0.000,25.989
1512,3.659,1.625,0.656,0.000,2.341,0.001,0.000,25.958
1533,3.661,1.625,0.665,0.000,2.375,0.001,0.000,25.938
1554,3.662,1.625,0.675,0.000,2.410,0.001,0.000,26.012
1575,3.664,1.625,0.684,0.000,2.445,0.001,0.000,26.000
1596,3.665,1.625,0.694,0.000,2.480,0.001,0.000,25.985
1617,3.667,1.625,0.703,0.000,2.514,0.001,0.000,25.967
1638,3.668,1.625,0.712,0.000,2.549,0.001,0.000,25.960
1659,3.670,1.625,0.722,0.000,2.584,0.001,0.000,25.969
1680,3.671,1.625,0.731,0.000,2.619,0.001,0.000,25.964
1701,3.673,1.625,0.741,0.000,2.654,0.001,0.000,25.976
1722,3.674,1.625,0.750,0.000,2.688,0.001,0.000,25.971
1743,3.676,1.625,0.760,0.000,2.723,0.001,0.000,25.918
1764,3.677,1.625,0.769,0.000,2.758,0.001,0.000,25.969
1785,3.679,1.625,0.779,0.000,2.793,0.001,0.000,25.972
1806,3.681,1.625,0.788,0.000,2.828,0.001,0.000,25.897
1827,3.682,1.625,0.798,0.000,2.863,0.001,0.000,25.957
1848,3.684,1.625,0.807,0.000,2.898,0.001,0.000,25.969
1869,3.686,1.625,0.817,0.000,2.933,0.001,0.000,25.951
1890,3.687,1.625,0.826,0.000,2.968,0.001,0.000,25.954
1911,3.689,1.625,0.836,0.000,3.003,0.001,0.000,25.938
1932,3.690,1.625,0.845,0.000,3.038,0.001,0.000,25.986
1953,3.692,1.625,0.855,0.000,3.073,0.001,0.000,25.962
1974,3.694,1.625,0.864,0.000,3.108,0.001,0.000,25.963
1995,3.696,1.625,0.874,0.000,3.143,0.001,0.000,25.946
2016,3.697,1.625,0.883,0.000,3.178,0.001,0.000,25.937
2037,3.699,1.625,0.893,0.000,3.213,0.001,0.000,25.970
2058,3.701,1.625,0.902,0.000,3.248,0.001,0.000,25.968
2079,3.703,1.625,0.912,0.000,3.283,0.001,0.000,25.957
2100,3.704,1.625,0.921,0.000,3.318,0.001,0.000,25.960
2121,3.706,1.625,0.931,0.000,3.353,0.001,0.000,25.996
2142,3.708,1.625,0.940,0.000,3.388,0.001,0.000,25.981
2163,3.710,1.625,0.950,0.000,3.423,0.001,0.000,25.950
2184,3.712,1.625,0.959,0.000,3.459,0.001,0.000,25.948
2205,3.714,1.625,0.968,0.000,3.494,0.001,0.000,25.943
2226,3.715,1.625,0.978,0.000,3.529,0.001,0.000,25.915
2247,3.717,1.625,0.987,0.000,3.564,0.001,0.000,25.958
2268,3.719,1.625,0.997,0.000,3.600,0.001,0.000,25.982
2289,3.720,1.625,1.006,0.000,3.635,0.001,0.000,25.982
2310,3.722,1.625,1.016,0.000,3.670,0.001,0.000,25.949
2331,3.724,1.625,1.025,0.000,3.705,0.001,0.000,25.961
2352,3.726,1.625,1.035,0.000,3.741,0.001,0.000,25.966
2373,3.728,1.625,1.044,0.000,3.776,0.001,0.000,25.953
2394,3.729,1.625,1.054,0.000,3.811,0.001,0.000,25.933
2415,3.731,1.625,1.063,0.000,3.847,0.001,0.000,25.978
2436,3.733,1.625,1.073,0.000,3.882,0.001,0.000,25.937
2457,3.734,1.625,1.082,0.000,3.918,0.001,0.000,26.002
2478,3.736,1.625,1.092,0.000,3.953,0.001,0.000,25.990
2499,3.738,1.625,1.101,0.000,3.988,0.001,0.000,25.994
2520,3.740,1.625,1.111,0.000,4.024,0.001,0.000,25.946
2541,3.741,1.625,1.120,0.000,4.059,0.001,0.000,25.992
2562,3.743,1.625,1.130,0.000,4.095,0.001,0.000,26.018
2583,3.745,1.625,1.139,0.000,4.130,0.001,0.000,25.987
2604,3.747,1.625,1.149,0.000,4.166,0.001,0.000,25.989
2625,3.748,1.625,1.158,0.000,4.201,0.001,0.000,25.980
2646,3.750,1.625,1.168,0.000,4.237,0.001,0.000,26.032
2667,3.752,1.625,1.177,0.000,4.272,0.001,0.000,25.959
2688,3.753,1.625,1.187,0.000,4.308,0.001,0.000,26.006
2709,3.755,1.625,1.196,0.000,4.344,0.001,0.000,25.991
2730,3.756,1.625,1.206,0.000,4.379,0.001,0.000,26.026
2751,3.758,1.625,1.215,0.000,4.415,0.001,0.000,26.003
2772,3.760,1.625,1.224,0.000,4.451,0.001,0.000,25.982
2793,3.762,1.625,1.234,0.000,4.486,0.001,0.000,26.024
2814,3.764,1.625,1.243,0.000,4.522,0.001,0.000,25.996
2835,3.765,1.625,1.253,0.000,4.558,0.001,0.000,26.002
2856,3.767,1.625,1.262,0.000,4.593,0.001,0.000,26.020
2877,3.769,1.625,1.272,0.000,4.629,0.001,0.000,26.018
2898,3.771,1.625,1.281,0.000,4.665,0.001,0.000,26.040
2919,3.773,1.625,1.291,0.000,4.700,0.001,0.000,26.042
2940,3.774,1.625,1.300,0.000,4.736,0.001,0.000,26.110
2961,3.776,1.625,1.310,0.000,4.772,0.001,0.000,26.126
2982,3.778,1.625,1.319,0.000,4.808,0.001,0.000,26.166
3003,3.780,1.625,1.329,0.000,4.844,0.001,0.000,26.076
3024,3.781,1.625,1.338,0.000,4.880,0.001,0.000,26.057
3045,3.783,1.625,1.348,0.000,4.915,0.001,0.000,26.022
3066,3.785,1.625,1.357,0.000,4.951,0.001,0.000,25.987
3087,3.787,1.625,1.367,0.000,4.987,0.001,0.000,25.934
3108,3.789,1.625,1.376,0.000,5.023,0.001,0.000,25.952
3129,3.791,1.625,1.386,0.000,5.059,0.001,0.000,25.899
3150,3.793,1.625,1.395,0.000,5.095,0.001,0.000,25.939
3171,3.795,1.625,1.405,0.000,5.131,0.001,0.000,26.035
3192,3.797,1.625,1.414,0.000,5.167,0.001,0.000,26.184
3213,3.799,1.625,1.424,0.000,5.203,0.001,0.000,26.330
3234,3.800,1.625,1.433,0.000,5.239,0.001,0.000,26.475
3255,3.802,1.625,1.443,0.000,5.275,0.001,0.000,26.539
3276,3.804,1.625,1.452,0.000,5.311,0.001,0.000,26.592
3297,3.806,1.625,1.462,0.000,5.347,0.001,0.000,26.644
3318,3.808,1.625,1.471,0.000,5.383,0.001,0.000,26.620
3339,3.811,1.625,1.480,0.000,5.419,0.001,0.000,26.539
3360,3.813,1.625,1.490,0.000,5.456,0.001,0.000,26.459
3381,3.814,1.625,1.499,0.000,5.492,0.001,0.000,26.410
3402,3.817,1.625,1.509,0.000,5.528,0.001,0.000,26.400
3423,3.818,1.625,1.518,0.000,5.564,0.001,0.000,26.296
3444,3.821,1.625,1.528,0.000,5.600,0.001,0.000,26.321
3465,3.823,1.625,1.537,0.000,5.637,0.001,0.000,26.289
3486,3.825,1.625,1.547,0.000,5.673,0.001,0.000,26.264
3507,3.827,1.625,1.556,0.000,5.709,0.001,0.000,26.261
3528,3.830,1.625,1.566,0.000,5.745,0.001,0.000,26.261
3549,3.832,1.625,1.575,0.000,5.782,0.001,0.000,26.250
3570,3.834,1.625,1.585,0.000,5.818,0.001,0.000,26.230
3591,3.836,1.625,1.594,0.000,5.854,0.001,0.000,26.252
3612,3.839,1.625,1.604,0.000,5.891,0.001,0.000,26.273
3633,3.841,1.625,1.613,0.000,5.927,0.001,0.000,26.233
3654,3.844,1.625,1.623,0.000,5.964,0.001,0.000,26.305
3675,3.846,1.625,1.632,0.000,6.000,0.001,0.000,26.264
3696,3.848,1.625,1.642,0.000,6.037,0.001,0.000,26.305
3717,3.851,1.625,1.651,0.000,6.073,0.001,0.000,26.217
3738,3.853,1.625,1.661,0.000,6.110,0.001,0.000,26.260
3759,3.856,1.625,1.670,0.000,6.146,0.001,0.000,26.249
3780,3.858,1.625,1.680,0.000,6.183,0.001,0.000,26.274
3801,3.861,1.625,1.689,0.000,6.219,0.001,0.000,26.270
3822,3.863,1.625,1.699,0.000,6.256,0.001,0.000,26.300
3843,3.866,1.625,1.708,0.000,6.293,0.001,0.000,26.299
3864,3.868,1.625,1.718,0.000,6.329,0.001,0.000,26.252
3885,3.871,1.625,1.727,0.000,6.366,0.001,0.000,26.255
3906,3.873,1.625,1.736,0.000,6.403,0.001,0.000,26.234
3927,3.876,1.625,1.746,0.000,6.439,0.001,0.000,26.244
3948,3.879,1.625,1.755,0.000,6.476,0.001,0.000,26.290
3969,3.881,1.625,1.765,0.000,6.513,0.001,0.000,26.272
3990,3.884,1.625,1.774,0.000,6.550,0.001,0.000,26.281
4011,3.887,1.625,1.784,0.000,6.587,0.001,0.000,26.229
4032,3.889,1.625,1.793,0.000,6.623,0.001,0.000,26.275
4053,3.892,1.625,1.803,0.000,6.660,0.001,0.000,26.229
4074,3.895,1.625,1.812,0.000,6.697,0.001,0.000,26.323
4095,3.897,1.625,1.822,0.000,6.734,0.001,0.000,26.259
4116,3.900,1.625,1.831,0.000,6.771,0.001,0.000,26.277
4137,3.903,1.625,1.841,0.000,6.808,0.001,0.000,26.243
4158,3.906,1.625,1.850,0.000,6.845,0.001,0.000,26.310
4179,3.908,1.625,1.860,0.000,6.882,0.001,0.000,26.260
4200,3.911,1.625,1.869,0.000,6.919,0.001,0.000,26.343
4221,3.914,1.625,1.879,0.000,6.956,0.001,0.000,26.300
4242,3.917,1.625,1.888,0.000,6.993,0.001,0.000,26.248
4263,3.919,1.625,1.898,0.000,7.031,0.001,0.000,26.270
4284,3.922,1.625,1.907,0.000,7.068,0.001,0.000,26.282
4305,3.925,1.625,1.917,0.000,7.105,0.001,0.000,26.286
4326,3.928,1.625,1.926,0.000,7.142,0.001,0.000,26.269
4347,3.931,1.625,1.936,0.000,7.179,0.001,0.000,26.277
4368,3.933,1.625,1.945,0.000,7.217,0.001,0.000,26.308
4389,3.936,1.625,1.955,0.000,7.254,0.001,0.000,26.254
4410,3.939,1.625,1.964,0.000,7.291,0.001,0.000,26.247
4431,3.942,1.625,1.974,0.000,7.329,0.001,0.000,26.280
4452,3.945,1.625,1.983,0.000,7.366,0.001,0.000,26.229
4473,3.947,1.625,1.992,0.000,7.404,0.001,0.000,26.212
4494,3.950,1.625,2.002,0.000,7.441,0.001,0.000,26.269
4515,3.953,1.625,2.011,0.000,7.478,0.001,0.000,26.225
4536,3.956,1.625,2.021,0.000,7.516,0.001,0.000,26.210
4557,3.958,1.625,2.030,0.000,7.553,0.001,0.000,26.267
4578,3.961,1.625,2.040,0.000,7.591,0.001,0.000,26.264
4599,3.964,1.625,2.049,0.000,7.629,0.001,0.000,26.221
4620,3.967,1.625,2.059,0.000,7.666,0.001,0.000,26.263
4641,3.970,1.625,2.068,0.000,7.704,0.001,0.000,26.261
4662,3.972,1.625,2.078,0.000,7.741,0.001,0.000,26.262
4683,3.975,1.625,2.087,0.000,7.779,0.001,0.000,26.245
4704,3.978,1.625,2.097,0.000,7.817,0.001,0.000,26.214
4725,3.981,1.625,2.106,0.000,7.855,0.001,0.000,26.269
4746,3.983,1.625,2.116,0.000,7.892,0.001,0.000,26.254
4767,3.986,1.625,2.125,0.000,7.930,0.001,0.000,26.258
4788,3.989,1.625,2.135,0.000,7.968,0.001,0.000,26.265
4809,3.992,1.625,2.144,0.000,8.006,0.001,0.000,26.266
4830,3.995,1.625,2.154,0.000,8.044,0.001,0.000,26.240
4851,3.997,1.625,2.163,0.000,8.082,0.001,0.000,26.256
4872,4.000,1.625,2.173,0.000,8.119,0.001,0.000,26.238
4893,4.003,1.625,2.182,0.000,8.157,0.001,0.000,26.252
4914,4.006,1.625,2.192,0.000,8.195,0.001,0.000,26.287
4935,4.008,1.625,2.201,0.000,8.233,0.001,0.000,26.223
4956,4.011,1.625,2.211,0.000,8.271,0.001,0.000,26.257
4977,4.014,1.625,2.220,0.000,8.309,0.001,0.000,26.280
4998,4.016,1.625,2.230,0.000,8.347,0.001,0.000,26.274
5019,4.019,1.625,2.239,0.000,8.386,0.001,0.000,26.253
5040,4.022,1.625,2.248,0.000,8.424,0.001,0.000,26.262
5061,4.025,1.625,2.258,0.000,8.462,0.001,0.000,26.272
5082,4.027,1.625,2.267,0.000,8.500,0.001,0.000,26.248
5103,4.030,1.625,2.277,0.000,8.538,0.001,0.000,26.276
5124,4.033,1.625,2.286,0.000,8.576,0.001,0.000,26.258
5145,4.036,1.625,2.296,0.000,8.615,0.001,0.000,26.261
5166,4.039,1.625,2.305,0.000,8.653,0.001,0.000,26.264
5187,4.041,1.625,2.315,0.000,8.691,0.001,0.000,26.227
5208,4.044,1.625,2.324,0.000,8.730,0.001,0.000,26.231
5229,4.047,1.625,2.334,0.000,8.768,0.001,0.000,26.236
5250,4.050,1.625,2.343,0.000,8.806,0.001,0.000,26.281
5271,4.052,1.625,2.353,0.000,8.845,0.001,0.000,26.269
5292,4.055,1.625,2.362,0.000,8.883,0.001,0.000,26.250
5313,4.058,1.625,2.372,0.000,8.922,0.001,0.000,26.272
5334,4.061,1.625,2.381,0.000,8.960,0.001,0.000,26.273
5355,4.064,1.625,2.391,0.000,8.999,0.001,0.000,26.286
5376,4.066,1.625,2.400,0.000,9.037,0.001,0.000,26.252
5397,4.069,1.625,2.410,0.000,9.076,0.001,0.000,26.272
5418,4.072,1.625,2.419,0.000,9.114,0.001,0.000,26.231
5439,4.075,1.625,2.429,0.000,9.153,0.001,0.000,26.231
5460,4.078,1.625,2.438,0.000,9.192,0.001,0.000,26.280
5481,4.081,1.625,2.448,0.000,9.230,0.001,0.000,26.273
5502,4.084,1.625,2.457,0.000,9.269,0.001,0.000,26.282
5523,4.087,1.625,2.467,0.000,9.308,0.001,0.000,26.241
5544,4.090,1.625,2.476,0.000,9.347,0.001,0.000,26.316
5565,4.093,1.625,2.486,0.000,9.385,0.001,0.000,26.267
5586,4.096,1.625,2.495,0.000,9.424,0.001,0.000,26.285
5607,4.099,1.625,2.504,0.000,9.463,0.001,0.000,26.307
5628,4.102,1.625,2.514,0.000,9.502,0.001,0.000,26.283
5649,4.105,1.625,2.523,0.000,9.541,0.001,0.000,26.294
5670,4.108,1.625,2.533,0.000,9.580,0.001,0.000,26.288
5691,4.111,1.625,2.542,0.000,9.619,0.001,0.000,26.310
5712,4.114,1.625,2.552,0.000,9.658,0.001,0.000,26.374
5733,4.117,1.625,2.561,0.000,9.697,0.001,0.000,26.303
5754,4.121,1.625,2.571,0.000,9.736,0.001,0.000,26.333
5775,4.124,1.625,2.580,0.000,9.775,0.001,0.000,26.319
5796,4.127,1.625,2.590,0.000,9.814,0.001,0.000,26.299
5817,4.131,1.625,2.599,0.000,9.853,0.001,0.000,26.322
5838,4.134,1.625,2.609,0.000,9.892,0.001,0.000,26.315
5859,4.137,1.625,2.618,0.000,9.931,0.001,0.000,26.355
5880,4.141,1.625,2.628,0.000,9.971,0.001,0.000,26.276
5901,4.144,1.625,2.637,0.000,10.010,0.001,0.000,26.322
5922,4.147,1.625,2.647,0.000,10.049,0.001,0.000,26.326
5943,4.151,1.625,2.656,0.000,10.089,0.001,0.000,26.333
5964,4.154,1.625,2.666,0.000,10.128,0.001,0.000,26.319
5985,4.158,1.625,2.675,0.000,10.167,0.001,0.000,26.336
6006,4.161,1.625,2.685,0.000,10.207,0.001,0.000,26.362
6027,4.165,1.625,2.694,0.000,10.246,0.001,0.000,26.355
6048,4.168,1.625,2.704,0.000,10.286,0.001,0.000,26.350
6069,4.172,1.625,2.713,0.000,10.325,0.001,0.000,26.383
6090,4.175,1.625,2.723,0.000,10.365,0.001,0.000,26.321
6111,4.179,1.625,2.732,0.000,10.405,0.001,0.000,26.345
6132,4.182,1.625,2.742,0.000,10.444,0.001,0.000,26.347
6153,4.185,1.625,2.751,0.000,10.484,0.001,0.000,26.345
6174,4.189,1.625,2.760,0.000,10.524,0.001,0.000,26.331
6195,4.192,1.625,2.770,0.000,10.563,0.001,0.000,26.371
6216,4.195,1.625,2.779,0.000,10.603,0.001,0.000,26.383
6237,4.199,1.625,2.789,0.000,10.643,0.001,0.000,26.377
6257,4.200,1.596,2.798,0.000,10.681,0.001,0.000,26.336
6278,4.200,1.551,2.807,0.000,10.720,0.001,0.000,26.393
6299,4.200,1.512,2.816,0.000,10.757,0.001,0.000,26.384
6320,4.200,1.476,2.825,0.000,10.794,0.001,0.000,26.315
6341,4.200,1.443,2.833,0.000,10.829,0.001,0.000,26.310
6362,4.200,1.411,2.842,0.000,10.864,0.001,0.000,26.298
6383,4.200,1.378,2.850,0.000,10.899,0.001,0.000,26.284
6404,4.200,1.349,2.858,0.000,10.932,0.001,0.000,26.297
6425,4.200,1.319,2.866,0.000,10.965,0.001,0.000,26.317
6446,4.200,1.289,2.873,0.000,10.997,0.001,0.000,26.254
6467,4.200,1.260,2.881,0.000,11.028,0.001,0.000,26.270
6488,4.200,1.232,2.888,0.000,11.058,0.001,0.000,26.288
6509,4.200,1.206,2.895,0.000,11.088,0.001,0.000,26.208
6530,4.200,1.179,2.902,0.000,11.117,0.001,0.000,26.212
6551,4.200,1.155,2.909,0.000,11.146,0.001,0.000,26.161
6572,4.200,1.130,2.915,0.000,11.174,0.001,0.000,26.117
6593,4.200,1.106,2.922,0.000,11.201,0.001,0.000,26.126
6614,4.200,1.085,2.928,0.000,11.228,0.001,0.000,26.089
6635,4.200,1.062,2.935,0.000,11.254,0.001,0.000,26.051
6656,4.200,1.042,2.941,0.000,11.280,0.001,0.000,26.043
6677,4.200,1.022,2.947,0.000,11.305,0.001,0.000,25.974
6698,4.200,1.003,2.953,0.000,11.330,0.001,0.000,26.063
6719,4.200,0.985,2.958,0.000,11.355,0.001,0.000,25.992
6740,4.200,0.965,2.964,0.000,11.378,0.001,0.000,25.975
6761,4.200,0.948,2.970,0.000,11.402,0.001,0.000,25.933
6782,4.200,0.931,2.975,0.000,11.425,0.001,0.000,25.896
6803,4.200,0.914,2.981,0.000,11.447,0.001,0.000,25.919
6824,4.200,0.898,2.986,0.000,11.470,0.001,0.000,25.895
6845,4.200,0.883,2.991,0.000,11.491,0.001,0.000,25.856
6866,4.200,0.868,2.996,0.000,11.513,0.001,0.000,25.835
6887,4.200,0.852,3.001,0.000,11.534,0.001,0.000,25.795
6908,4.200,0.838,3.006,0.000,11.555,0.001,0.000,25.770
6929,4.200,0.824,3.011,0.000,11.575,0.001,0.000,25.773
6950,4.200,0.809,3.016,0.000,11.595,0.001,0.000,25.750
6971,4.200,0.797,3.020,0.000,11.615,0.001,0.000,25.699
6992,4.200,0.783,3.025,0.000,11.634,0.001,0.000,25.669
7013,4.200,0.771,3.029,0.000,11.653,0.001,0.000,25.659
7034,4.200,0.759,3.034,0.000,11.672,0.001,0.000,25.671
7055,4.200,0.747,3.038,0.000,11.690,0.001,0.000,25.647
7076,4.200,0.736,3.043,0.000,11.708,0.001,0.000,25.659
7097,4.200,0.726,3.047,0.000,11.726,0.001,0.000,25.638
7118,4.200,0.714,3.051,0.000,11.744,0.001,0.000,25.591
7139,4.200,0.705,3.055,0.000,11.761,0.001,0.000,25.605
7160,4.200,0.695,3.059,0.000,11.778,0.001,0.000,25.602
7181,4.200,0.685,3.063,0.000,11.795,0.001,0.000,25.565
7202,4.200,0.676,3.067,0.000,11.812,0.001,0.000,25.542
7223,4.200,0.668,3.071,0.000,11.829,0.001,0.000,25.555
7244,4.200,0.659,3.075,0.000,11.845,0.001,0.000,25.545
7265,4.200,0.650,3.079,0.000,11.861,0.001,0.000,25.521
7286,4.200,0.643,3.083,0.000,11.877,0.001,0.000,25.507
7307,4.200,0.635,3.086,0.000,11.892,0.001,0.000,25.486
7328,4.200,0.627,3.090,0.000,11.908,0.001,0.000,25.493
7349,4.200,0.620,3.094,0.000,11.923,0.001,0.000,25.498
7370,4.200,0.612,3.097,0.000,11.938,0.001,0.000,25.463
7391,4.200,0.605,3.101,0.000,11.953,0.001,0.000,25.442
7412,4.200,0.598,3.104,0.000,11.968,0.001,0.000,25.426
7433,4.200,0.590,3.108,0.000,11.982,0.001,0.000,25.423
7454,4.200,0.583,3.111,0.000,11.997,0.001,0.000,25.385
7475,4.200,0.576,3.115,0.000,12.011,0.001,0.000,25.391
7496,4.200,0.570,3.118,0.000,12.025,0.001,0.000,25.381
7517,4.200,0.562,3.121,0.000,12.039,0.001,0.000,25.394
7538,4.200,0.556,3.125,0.000,12.052,0.001,0.000,25.342
7559,4.200,0.549,3.128,0.000,12.066,0.001,0.000,25.362
7580,4.200,0.543,3.131,0.000,12.079,0.001,0.000,25.373
7601,4.200,0.536,3.134,0.000,12.093,0.001,0.000,25.353
7622,4.200,0.530,3.137,0.000,12.106,0.001,0.000,25.337
7643,4.200,0.523,3.140,0.000,12.119,0.001,0.000,25.325
7664,4.200,0.517,3.143,0.000,12.131,0.001,0.000,25.284
7685,4.200,0.509,3.146,0.000,12.144,0.001,0.000,25.315
7706,4.200,0.505,3.149,0.000,12.156,0.001,0.000,25.287
7727,4.200,0.497,3.152,0.000,12.168,0.001,0.000,25.310
7748,4.200,0.491,3.155,0.000,12.181,0.001,0.000,25.304
7769,4.200,0.484,3.158,0.000,12.193,0.001,0.000,25.314
7790,4.200,0.477,3.161,0.000,12.204,0.001,0.000,25.272
7811,4.200,0.472,3.163,0.000,12.216,0.001,0.000,25.245
7832,4.200,0.465,3.166,0.000,12.227,0.001,0.000,25.290
7853,4.200,0.459,3.169,0.000,12.239,0.001,0.000,25.240
7874,4.200,0.454,3.172,0.000,12.250,0.001,0.000,25.206
7895,4.200,0.447,3.174,0.000,12.261,0.001,0.000,25.245
7916,4.200,0.440,3.177,0.000,12.272,0.001,0.000,25.233
7937,4.200,0.434,3.179,0.000,12.282,0.001,0.000,25.194
7958,4.200,0.427,3.182,0.000,12.293,0.001,0.000,25.209
7979,4.200,0.422,3.184,0.000,12.303,0.001,0.000,25.188
8000,4.200,0.416,3.187,0.000,12.314,0.001,0.000,25.183
8021,4.200,0.410,3.189,0.000,12.324,0.001,0.000,25.196
8042,4.200,0.404,3.192,0.000,12.334,0.001,0.000,25.178
8063,4.200,0.398,3.194,0.000,12.344,0.001,0.000,25.212
8084,4.200,0.393,3.196,0.000,12.353,0.001,0.000,25.161
8105,4.200,0.387,3.198,0.000,12.363,0.001,0.000,25.179
8126,4.200,0.382,3.201,0.000,12.372,0.001,0.000,25.172
8147,4.200,0.375,3.203,0.000,12.382,0.001,0.000,25.159
8168,4.200,0.371,3.205,0.000,12.391,0.001,0.000,25.178
8189,4.200,0.365,3.207,0.000,12.400,0.001,0.000,25.126
8210,4.200,0.360,3.209,0.000,12.409,0.001,0.000,25.122
8231,4.200,0.353,3.211,0.000,12.417,0.001,0.000,25.155
8252,4.200,0.347,3.213,0.000,12.426,0.001,0.000,25.103
8273,4.200,0.343,3.215,0.000,12.434,0.001,0.000,25.149
8294,4.200,0.338,3.217,0.000,12.443,0.001,0.000,25.125
8315,4.200,0.333,3.219,0.000,12.451,0.001,0.000,25.091
8336,4.200,0.327,3.221,0.000,12.459,0.001,0.000,25.104
8357,4.200,0.322,3.223,0.000,12.467,0.001,0.000,25.141
8378,4.200,0.317,3.225,0.000,12.475,0.001,0.000,25.111
8399,4.200,0.312,3.227,0.000,12.482,0.001,0.000,25.108
8420,4.200,0.308,3.229,0.000,12.490,0.001,0.000,25.074
8441,4.200,0.303,3.231,0.000,12.498,0.001,0.000,25.093
8462,4.200,0.297,3.232,0.000,12.505,0.001,0.000,25.064
8483,4.200,0.293,3.234,0.000,12.512,0.001,0.000,25.081
8504,4.200,0.288,3.236,0.000,12.519,0.001,0.000,25.065
8525,4.200,0.283,3.237,0.000,12.526,0.001,0.000,25.099
8546,4.200,0.278,3.239,0.000,12.533,0.001,0.000,25.110
8567,4.200,0.275,3.241,0.000,12.540,0.001,0.000,25.072
8588,4.200,0.271,3.242,0.000,12.547,0.001,0.000,25.093
8609,4.200,0.267,3.244,0.000,12.553,0.001,0.000,25.045
8630,4.200,0.261,3.245,0.000,12.560,0.001,0.000,24.999
8651,4.200,0.258,3.247,0.000,12.566,0.001,0.000,25.065
8672,4.200,0.254,3.248,0.000,12.572,0.001,0.000,25.089
8693,4.200,0.249,3.250,0.000,12.578,0.001,0.000,25.042
8714,4.200,0.245,3.251,0.000,12.584,0.001,0.000,25.072
8735,4.200,0.240,3.253,0.000,12.590,0.001,0.000,25.062
8756,4.200,0.238,3.254,0.000,12.596,0.001,0.000,25.049
8777,4.200,0.233,3.255,0.000,12.602,0.001,0.000,25.050
8798,4.200,0.230,3.257,0.000,12.608,0.001,0.000,24.985
8819,4.200,0.226,3.258,0.000,12.613,0.001,0.000,25.016
8840,4.200,0.222,3.259,0.000,12.619,0.001,0.000,25.081
8861,4.200,0.218,3.261,0.000,12.624,0.001,0.000,25.013
8882,4.200,0.215,3.262,0.000,12.630,0.001,0.000,24.983
8903,4.200,0.211,3.263,0.000,12.635,0.001,0.000,25.008
8924,4.200,0.208,3.264,0.000,12.640,0.001,0.000,25.003
8945,4.200,0.205,3.266,0.000,12.645,0.001,0.000,25.045
8966,4.200,0.202,3.267,0.000,12.650,0.001,0.000,25.040
8987,4.200,0.198,3.268,0.000,12.655,0.001,0.000,24.986
9008,4.200,0.195,3.269,0.000,12.660,0.001,0.000,24.991
9029,4.200,0.191,3.270,0.000,12.664,0.001,0.000,25.003
9050,4.200,0.188,3.271,0.000,12.669,0.001,0.000,25.019
9071,4.200,0.186,3.272,0.000,12.674,0.001,0.000,24.988
9092,4.200,0.182,3.274,0.000,12.678,0.001,0.000,25.022
9113,4.200,0.179,3.275,0.000,12.682,0.001,0.000,24.978
9134,4.200,0.176,3.276,0.000,12.687,0.001,0.000,24.986
9155,4.200,0.174,3.277,0.000,12.691,0.001,0.000,24.994
9176,4.200,0.171,3.278,0.000,12.695,0.001,0.000,24.998
9197,4.200,0.168,3.279,0.000,12.699,0.001,0.000,24.944
9218,4.200,0.165,3.280,0.000,12.704,0.001,0.000,24.879
9239,4.200,0.162,3.281,0.000,12.708,0.001,0.000,24.792
9260,4.200,0.160,3.281,0.000,12.711,0.001,0.000,24.818
9281,4.200,0.154,3.282,0.000,12.715,0.001,0.000,24.769
9302,4.200,0.153,3.283,0.000,12.719,0.001,0.000,25.542
9323,4.200,0.150,3.284,0.000,12.723,0.001,0.000,25.714
9344,4.200,0.148,3.285,0.000,12.726,0.001,0.000,25.636
9365,4.200,0.146,3.286,0.000,12.730,0.001,0.000,25.473
9386,4.200,0.144,3.287,0.000,12.734,0.001,0.000,25.313
9407,4.200,0.142,3.288,0.000,12.737,0.001,0.000,25.083
9428,4.200,0.139,3.288,0.000,12.741,0.001,0.000,24.984
9449,4.200,0.137,3.289,0.000,12.744,0.001,0.000,24.944
9470,4.200,0.135,3.290,0.000,12.747,0.001,0.000,24.906
9491,4.200,0.134,3.291,0.000,12.751,0.001,0.000,24.915
9512,4.200,0.131,3.292,0.000,12.754,0.001,0.000,24.908
9533,4.200,0.130,3.292,0.000,12.757,0.001,0.000,24.862
9554,4.200,0.127,3.293,0.000,12.760,0.001,0.000,24.894
9575,4.200,0.125,3.294,0.000,12.763,0.001,0.000,24.957
9596,4.200,0.124,3.295,0.000,12.766,0.001,0.000,24.921
9617,4.200,0.120,3.295,0.000,12.769,0.001,0.000,24.955
9638,4.200,0.119,3.296,0.000,12.772,0.001,0.000,24.929
9659,4.200,0.117,3.297,0.000,12.775,0.001,0.000,24.904
9680,4.200,0.115,3.297,0.000,12.778,0.001,0.000,24.954
9701,4.200,0.114,3.298,0.000,12.781,0.001,0.000,24.944
9722,4.200,0.112,3.299,0.000,12.784,0.001,0.000,24.938
9743,4.200,0.110,3.299,0.000,12.786,0.001,0.000,24.954
9764,4.200,0.109,3.300,0.000,12.789,0.001,0.000,24.972
9785,4.200,0.107,3.301,0.000,12.792,0.001,0.000,24.936
9806,4.200,0.105,3.301,0.000,12.794,0.001,0.000,24.923
9827,4.200,0.104,3.302,0.000,12.797,0.001,0.000,24.921
9848,4.200,0.103,3.302,0.000,12.799,0.001,0.000,24.938
9869,4.200,0.100,3.303,0.000,12.802,0.001,0.000,24.984
9890,4.200,0.099,3.304,0.000,12.804,0.001,0.000,24.946
9911,4.200,0.097,3.304,0.000,12.807,0.001,0.000,24.965
9932,4.200,0.096,3.305,0.000,12.809,0.001,0.000,24.988
9953,4.200,0.095,3.305,0.000,12.811,0.001,0.000,24.962
9974,4.200,0.093,3.306,0.000,12.814,0.001,0.000,24.967
9995,4.200,0.092,3.306,0.000,12.816,0.001,0.000,24.977
10016,4.200,0.090,3.307,0.000,12.818,0.001,0.000,24.988
10037,4.200,0.088,3.307,0.000,12.820,0.001,0.000,24.946
10058,4.200,0.087,3.308,0.000,12.822,0.001,0.000,24.920
10079,4.200,0.086,3.308,0.000,12.825,0.001,0.000,24.953
10100,4.200,0.085,3.309,0.000,12.827,0.001,0.000,24.924
10121,4.200,0.084,3.309,0.000,12.829,0.001,0.000,24.947
10142,4.200,0.083,3.310,0.000,12.831,0.001,0.000,24.988
10163,4.200,0.081,3.310,0.000,12.833,0.001,0.000,24.928
10184,4.200,0.079,3.311,0.000,12.835,0.001,0.000,24.956
10205,4.200,0.078,3.311,0.000,12.837,0.001,0.000,24.909
10226,4.200,0.077,3.312,0.000,12.839,0.001,0.000,24.926
10247,4.200,0.076,3.312,0.000,12.840,0.001,0.000,24.907
10268,4.200,0.075,3.313,0.000,12.842,0.001,0.000,24.953
10289,4.200,0.074,3.313,0.000,12.844,0.001,0.000,24.920
10310,4.200,0.074,3.314,0.000,12.846,0.001,0.000,24.994
10331,4.200,0.072,3.314,0.000,12.848,0.001,0.000,24.928
10352,4.200,0.071,3.314,0.000,12.850,0.001,0.000,24.942
10373,4.200,0.071,3.315,0.000,12.851,0.001,0.000,24.948
10394,4.200,0.070,3.315,0.000,12.853,0.001,0.000,24.895
10415,4.200,0.068,3.316,0.000,12.855,0.001,0.000,24.992
10436,4.200,0.067,3.316,0.000,12.856,0.001,0.000,24.917
10457,4.200,0.067,3.316,0.000,12.858,0.001,0.000,24.929
10478,4.195,0.000,3.317,0.000,12.859,0.001,0.000,24.909
10499,4.194,0.000,3.317,0.000,12.859,0.001,0.000,24.919
10520,4.194,0.000,3.317,0.000,12.859,0.001,0.000,24.944
10541,4.193,0.000,3.317,0.000,12.859,0.001,0.000,24.934
10562,4.193,0.000,3.317,0.000,12.859,0.001,0.000,24.942
10583,4.192,0.000,3.317,0.000,12.859,0.001,0.000,24.936
10604,4.192,0.000,3.317,0.000,12.859,0.001,0.000,24.913
10625,4.192,0.000,3.317,0.000,12.859,0.001,0.000,24.925
10646,4.192,0.000,3.317,0.000,12.859,0.001,0.000,24.960
10667,4.191,0.000,3.317,0.000,12.859,0.001,0.000,24.919
10688,4.191,0.000,3.317,0.000,12.859,0.001,0.000,24.903
10709,4.191,0.000,3.317,0.000,12.859,0.001,0.000,24.913
10730,4.190,0.000,3.317,0.000,12.859,0.001,0.000,24.872
10751,4.190,0.000,3.317,0.000,12.859,0.001,0.000,24.891
10772,4.190,0.000,3.317,0.000,12.859,0.001,0.000,24.887
10793,4.190,0.000,3.317,0.000,12.859,0.001,0.000,24.900
10814,4.190,0.000,3.317,0.000,12.859,0.001,0.000,24.914
10835,4.189,0.000,3.317,0.000,12.859,0.001,0.000,24.929
10856,4.189,0.000,3.317,0.000,12.859,0.001,0.000,24.911
10877,4.189,0.000,3.317,0.000,12.859,0.001,0.000,24.916
10898,4.189,0.000,3.317,0.000,12.859,0.001,0.000,24.922
10919,4.188,0.000,3.317,0.000,12.859,0.001,0.000,24.864
10940,4.188,0.000,3.317,0.000,12.859,0.001,0.000,24.906
10961,4.188,0.000,3.317,0.000,12.859,0.001,0.000,24.905
10982,4.188,0.000,3.317,0.000,12.859,0.001,0.000,24.953
11003,4.188,0.000,3.317,0.000,12.859,0.001,0.000,24.896
11024,4.188,0.000,3.317,0.000,12.859,0.001,0.000,24.879
11045,4.187,0.000,3.317,0.000,12.859,0.001,0.000,24.885
11066,4.187,0.000,3.317,0.000,12.859,0.001,0.000,24.877
11087,4.187,0.000,3.317,0.000,12.859,0.001,0.000,24.911
11108,4.187,0.000,3.317,0.000,12.859,0.001,0.000,24.904
11129,4.187,0.000,3.317,0.000,12.859,0.001,0.000,24.930
11150,4.187,0.000,3.317,0.000,12.859,0.001,0.000,24.929
11171,4.187,0.000,3.317,0.000,12.859,0.001,0.000,24.913
11192,4.186,0.000,3.317,0.000,12.859,0.001,0.000,24.897
11213,4.186,0.000,3.317,0.000,12.859,0.001,0.000,24.916
11234,4.186,0.000,3.317,0.000,12.859,0.001,0.000,24.884
11255,4.186,0.000,3.317,0.000,12.859,0.001,0.000,24.883
11276,4.186,0.000,3.317,0.000,12.859,0.001,0.000,24.883
11297,4.186,0.000,3.317,0.000,12.859,0.001,0.000,24.922
11318,4.186,0.000,3.317,0.000,12.859,0.001,0.000,24.889
11339,4.185,0.000,3.317,0.000,12.859,0.001,0.000,24.919
11360,4.186,0.000,3.317,0.000,12.859,0.001,0.000,24.877
11381,4.185,0.000,3.317,0.000,12.859,0.001,0.000,24.906
11402,4.185,0.000,3.317,0.000,12.859,0.001,0.000,24.905
11423,4.185,0.000,3.317,0.000,12.859,0.001,0.000,24.860
11444,4.185,0.000,3.317,0.000,12.859,0.001,0.000,24.867
11465,4.185,0.000,3.317,0.000,12.859,0.001,0.000,24.896
11486,4.185,0.000,3.317,0.000,12.859,0.001,0.000,24.855
11507,4.185,0.000,3.317,0.000,12.859,0.001,0.000,24.866
11528,4.185,0.000,3.317,0.000,12.859,0.001,0.000,24.877
11549,4.184,0.000,3.317,0.000,12.859,0.001,0.000,24.891
11570,4.184,0.000,3.317,0.000,12.859,0.001,0.000,24.890
11591,4.184,0.000,3.317,0.000,12.859,0.001,0.000,24.871
11612,4.184,0.000,3.317,0.000,12.859,0.001,0.000,24.870
11633,4.184,0.000,3.317,0.000,12.859,0.001,0.000,24.896
11654,4.184,0.000,3.317,0.000,12.859,0.001,0.000,24.884
11675,4.184,0.000,3.317,0.000,12.859,0.001,0.000,24.910
11696,4.184,0.000,3.317,0.000,12.859,0.001,0.000,24.859
11717,4.184,0.000,3.317,0.000,12.859,0.001,0.000,24.918
11738,4.184,0.000,3.317,0.000,12.859,0.001,0.000,24.879
11759,4.184,0.000,3.317,0.000,12.859,0.001,0.000,24.881
11780,4.183,0.000,3.317,0.000,12.859,0.001,0.000,24.916
11801,4.183,0.000,3.317,0.000,12.859,0.001,0.000,24.906
11822,4.183,0.000,3.317,0.000,12.859,0.001,0.000,24.922
11843,4.183,0.000,3.317,0.000,12.859,0.001,0.000,24.874
11864,4.183,0.000,3.317,0.000,12.859,0.001,0.000,24.922
11885,4.183,0.000,3.317,0.000,12.859,0.001,0.000,24.880
11906,4.183,0.000,3.317,0.000,12.859,0.001,0.000,24.898
11927,4.183,0.000,3.317,0.000,12.859,0.001,0.000,24.933
11948,4.183,0.000,3.317,0.000,12.859,0.001,0.000,24.933
11969,4.183,0.000,3.317,0.000,12.859,0.001,0.000,24.868
11990,4.183,0.000,3.317,0.000,12.859,0.001,0.000,24.896
12011,4.183,0.000,3.317,0.000,12.859,0.001,0.000,24.857
12032,4.182,0.000,3.317,0.000,12.859,0.001,0.000,24.856
12053,4.182,0.000,3.317,0.000,12.859,0.001,0.000,24.888
12074,4.182,0.000,3.317,0.000,12.859,0.001,0.000,24.896
12095,4.182,0.000,3.317,0.000,12.859,0.001,0.000,24.902
12116,4.182,0.000,3.317,0.000,12.859,0.001,0.000,24.904
12137,4.182,0.000,3.317,0.000,12.859,0.001,0.000,24.885
12158,4.182,0.000,3.317,0.000,12.859,0.001,0.000,24.886
12179,4.182,0.000,3.317,0.000,12.859,0.001,0.000,24.885
12200,4.182,0.000,3.317,0.000,12.859,0.001,0.000,24.945
12221,4.182,0.000,3.317,0.000,12.859,0.001,0.000,24.887
12242,4.182,0.000,3.317,0.000,12.859,0.001,0.000,24.888
12263,4.182,0.000,3.317,0.000,12.859,0.001,0.000,24.874
12284,4.182,0.000,3.317,0.000,12.859,0.001,0.000,24.887
12305,4.182,0.000,3.317,0.000,12.859,0.001,0.000,24.888
12326,4.181,0.000,3.317,0.000,12.859,0.001,0.000,24.852
12347,4.181,0.000,3.317,0.000,12.859,0.001,0.000,24.875
12368,4.181,0.000,3.317,0.000,12.859,0.001,0.000,24.876
12389,4.181,0.000,3.317,0.000,12.859,0.001,0.000,24.872
12410,4.181,0.000,3.317,0.000,12.859,0.001,0.000,24.873
12431,4.181,0.000,3.317,0.000,12.859,0.001,0.000,24.869
12452,4.181,0.000,3.317,0.000,12.859,0.001,0.000,24.859
12473,4.181,0.000,3.317,0.000,12.859,0.001,0.000,24.875
12494,4.181,0.000,3.317,0.000,12.859,0.001,0.000,24.866
12515,4.181,0.000,3.317,0.000,12.859,0.001,0.000,24.886
12536,4.181,0.000,3.317,0.000,12.859,0.001,0.000,24.874
12557,4.181,0.000,3.317,0.000,12.859,0.001,0.000,24.888
12578,4.181,0.000,3.317,0.000,12.859,0.001,0.000,24.862
12599,4.181,0.000,3.317,0.000,12.859,0.001,0.000,24.877
12620,4.181,0.000,3.317,0.000,12.859,0.001,0.000,24.947
12641,4.181,0.000,3.317,0.000,12.859,0.001,0.000,24.900
12662,4.180,0.000,3.317,0.000,12.859,0.001,0.000,24.839
12683,4.181,0.000,3.317,0.000,12.859,0.001,0.000,24.863
12704,4.180,0.000,3.317,0.000,12.859,0.001,0.000,24.879
12725,4.180,0.000,3.317,0.000,12.859,0.001,0.000,24.874
12746,4.180,0.000,3.317,0.000,12.859,0.001,0.000,24.903
12767,4.180,0.000,3.317,0.000,12.859,0.001,0.000,24.886
12788,4.180,0.000,3.317,0.000,12.859,0.001,0.000,24.896
12809,4.180,0.000,3.317,0.000,12.859,0.001,0.000,24.884
12830,4.180,0.000,3.317,0.000,12.859,0.001,0.000,24.857
12851,4.180,0.000,3.317,0.000,12.859,0.001,0.000,24.908
12872,4.180,0.000,3.317,0.000,12.859,0.001,0.000,24.910
12893,4.180,0.000,3.317,0.000,12.859,0.001,0.000,24.858
12914,4.180,0.000,3.317,0.000,12.859,0.001,0.000,24.890
12935,4.180,0.000,3.317,0.000,12.859,0.001,0.000,24.909
12956,4.180,0.000,3.317,0.000,12.859,0.001,0.000,24.870
12977,4.180,0.000,3.317,0.000,12.859,0.001,0.000,24.870
12998,4.180,0.000,3.317,0.000,12.859,0.001,0.000,24.890
13019,4.180,0.000,3.317,0.000,12.859,0.001,0.000,24.879
13040,4.180,0.000,3.317,0.000,12.859,0.001,0.000,24.910
13061,4.180,0.000,3.317,0.000,12.859,0.001,0.000,24.895
13082,4.180,0.000,3.317,0.000,12.859,0.001,0.000,24.888
13103,4.179,0.000,3.317,0.000,12.859,0.001,0.000,24.926
13124,4.179,0.000,3.317,0.000,12.859,0.001,0.000,24.883
13145,4.179,0.000,3.317,0.000,12.859,0.001,0.000,24.870
13166,4.179,0.000,3.317,0.000,12.859,0.001,0.000,24.906
13187,4.179,0.000,3.317,0.000,12.859,0.001,0.000,24.892
13208,4.179,0.000,3.317,0.000,12.859,0.001,0.000,24.906
13229,4.179,0.000,3.317,0.000,12.859,0.001,0.000,24.918
13250,4.179,0.000,3.317,0.000,12.859,0.001,0.000,24.861
13271,4.179,0.000,3.317,0.000,12.859,0.001,0.000,24.900
13292,4.179,0.000,3.317,0.000,12.859,0.001,0.000,24.902
13313,4.179,0.000,3.317,0.000,12.859,0.001,0.000,24.897
13334,4.179,0.000,3.317,0.000,12.859,0.001,0.000,24.892
13355,4.179,0.000,3.317,0.000,12.859,0.001,0.000,24.950
13376,4.179,0.000,3.317,0.000,12.859,0.001,0.000,24.912
13397,4.179,0.000,3.317,0.000,12.859,0.001,0.000,24.860
13418,4.179,0.000,3.317,0.000,12.859,0.001,0.000,24.929
13439,4.179,0.000,3.317,0.000,12.859,0.001,0.000,24.864
13460,4.179,0.000,3.317,0.000,12.859,0.001,0.000,24.893
13481,4.179,0.000,3.317,0.000,12.859,0.001,0.000,24.860
13502,4.179,0.000,3.317,0.000,12.859,0.001,0.000,24.917
13523,4.179,0.000,3.317,0.000,12.859,0.001,0.000,24.875
13544,4.179,0.000,3.317,0.000,12.859,0.001,0.000,24.892
13565,4.179,0.000,3.317,0.000,12.859,0.001,0.000,24.926
13586,4.179,0.000,3.317,0.000,12.859,0.001,0.000,24.889
13607,4.178,0.000,3.317,0.000,12.859,0.001,0.000,24.897
13628,4.178,0.000,3.317,0.000,12.859,0.001,0.000,24.864
13649,4.178,0.000,3.317,0.000,12.859,0.001,0.000,24.900
13670,4.178,0.000,3.317,0.000,12.859,0.001,0.000,24.919
13691,4.178,0.000,3.317,0.000,12.859,0.001,0.000,24.890
13712,4.178,0.000,3.317,0.000,12.859,0.001,0.000,24.904
13733,4.178,0.000,3.317,0.000,12.859,0.001,0.000,24.929
13754,4.178,0.000,3.317,0.000,12.859,0.001,0.000,24.873
13775,4.178,0.000,3.317,0.000,12.859,0.001,0.000,24.912
13796,4.178,0.000,3.317,0.000,12.859,0.001,0.000,24.883
13817,4.178,0.000,3.317,0.000,12.859,0.001,0.000,24.894
13838,4.178,0.000,3.317,0.000,12.859,0.001,0.000,24.940
13859,4.178,0.000,3.317,0.000,12.859,0.001,0.000,24.932
13880,4.178,0.000,3.317,0.000,12.859,0.001,0.000,24.929
13901,4.178,0.000,3.317,0.000,12.859,0.001,0.000,24.892
13922,4.178,0.000,3.317,0.000,12.859,0.001,0.000,24.950
13943,4.178,0.000,3.317,0.000,12.859,0.001,0.000,24.947
13964,4.178,0.000,3.317,0.000,12.859,0.001,0.000,24.978
13985,4.178,0.000,3.317,0.000,12.859,0.001,0.000,25.048
14006,4.178,0.000,3.317,0.000,12.859,0.001,0.000,25.017
14027,4.178,0.000,3.317,0.000,12.859,0.001,0.000,24.974
14048,4.178,0.000,3.317,0.000,12.859,0.001,0.000,24.899
14069,4.178,0.000,3.317,0.000,12.859,0.001,0.000,24.931
14089,3.476,-10.050,3.317,0.048,12.859,0.168,-0.003,25.596
14110,3.430,-10.050,3.317,0.107,12.859,0.370,-0.002,26.821
14131,3.398,-10.049,3.317,0.165,12.859,0.571,-0.002,28.129
14152,3.369,-10.048,3.317,0.224,12.859,0.769,-0.001,29.591
14173,3.344,-10.048,3.317,0.282,12.859,0.966,-0.001,30.875
14194,3.320,-10.047,3.317,0.341,12.859,1.161,-0.001,32.156
14215,3.297,-10.047,3.317,0.400,12.859,1.355,-0.001,33.336
14236,3.274,-10.048,3.317,0.458,12.859,1.547,-0.001,34.413
14257,3.251,-10.048,3.317,0.517,12.859,1.739,-0.001,35.297
14278,3.228,-10.047,3.317,0.575,12.859,1.928,-0.001,36.155
14299,3.205,-10.047,3.317,0.634,12.859,2.117,-0.002,36.985
14320,3.181,-10.047,3.317,0.693,12.859,2.304,-0.001,37.897
14341,3.159,-10.046,3.317,0.751,12.859,2.490,-0.001,38.746
14362,3.137,-10.047,3.317,0.810,12.859,2.674,-0.001,39.418
14383,3.114,-10.047,3.317,0.868,12.859,2.857,-0.001,39.930
14404,3.093,-10.047,3.317,0.927,12.859,3.039,-0.001,40.578
14425,3.072,-10.046,3.317,0.986,12.859,3.220,-0.001,41.215
14446,3.052,-10.046,3.317,1.044,12.859,3.399,-0.001,41.751
14467,3.032,-10.046,3.317,1.103,12.859,3.578,-0.001,42.091
14488,3.011,-10.046,3.317,1.161,12.859,3.755,-0.001,42.596
14509,2.991,-10.047,3.317,1.220,12.859,3.930,-0.001,42.896
14530,2.971,-10.046,3.317,1.279,12.859,4.105,-0.001,43.530
14551,2.950,-10.046,3.317,1.337,12.859,4.279,-0.001,43.911
14572,2.930,-10.046,3.317,1.396,12.859,4.451,-0.001,44.338
14593,2.909,-10.046,3.317,1.454,12.859,4.622,-0.001,44.752
14614,2.888,-10.047,3.317,1.513,12.859,4.792,-0.001,45.079
14635,2.867,-10.046,3.317,1.572,12.859,4.961,-0.001,45.545
14656,2.844,-10.046,3.317,1.630,12.859,5.128,-0.001,45.869
14677,2.822,-10.046,3.317,1.689,12.859,5.294,-0.001,46.325
14698,2.798,-10.046,3.317,1.747,12.859,5.459,-0.001,46.806
14719,2.773,-10.046,3.317,1.806,12.859,5.622,-0.001,47.281
14740,2.748,-10.046,3.317,1.865,12.859,5.784,-0.001,47.712
14761,2.722,-10.049,3.317,1.923,12.859,5.944,-0.001,48.185
14782,2.694,-10.050,3.317,1.982,12.859,6.103,-0.002,48.644
14803,2.666,-10.050,3.317,2.041,12.859,6.260,-0.001,48.766
14824,2.636,-10.050,3.317,2.099,12.859,6.415,-0.001,49.290
14845,2.605,-10.050,3.317,2.158,12.859,6.569,-0.001,50.099
14866,2.573,-10.050,3.317,2.216,12.859,6.721,-0.002,50.501
14887,2.538,-10.050,3.317,2.275,12.859,6.870,-0.002,50.858
14908,2.502,-10.050,3.317,2.334,12.859,7.018,-0.002,51.325
14929,3.386,0.000,3.317,2.336,12.859,7.025,0.004,51.695
14950,3.437,0.000,3.317,2.336,12.859,7.025,0.001,51.935
14971,3.452,0.000,3.317,2.336,12.859,7.025,0.000,50.896
14992,3.458,0.000,3.317,2.336,12.859,7.025,0.000,49.966
15013,3.462,0.000,3.317,2.336,12.859,7.025,0.000,48.501
15034,3.467,0.000,3.317,2.336,12.859,7.025,0.000,47.169
15055,3.471,0.000,3.317,2.336,12.859,7.025,0.000,45.571
15076,3.477,0.000,3.317,2.336,12.859,7.025,0.000,44.399
15097,3.484,0.000,3.317,2.336,12.859,7.025,0.000,43.236
15118,3.490,0.000,3.317,2.336,12.859,7.025,0.000,41.896
15139,3.496,0.000,3.317,2.336,12.859,7.025,0.000,40.795
15160,3.502,0.000,3.317,2.336,12.859,7.025,0.000,39.669
15181,3.506,0.000,3.317,2.336,12.859,7.025,0.000,38.803
15202,3.510,0.000,3.317,2.336,12.859,7.025,0.000,37.741
15223,3.513,0.000,3.317,2.336,12.859,7.025,0.000,36.834
15244,3.516,0.000,3.317,2.336,12.859,7.025,0.000,36.205
15265,3.518,0.000,3.317,2.336,12.859,7.025,0.000,35.322
15286,3.520,0.000,3.317,2.336,12.859,7.025,0.000,34.648
15307,3.522,0.000,3.317,2.336,12.859,7.025,0.000,34.066
15328,3.523,0.000,3.317,2.336,12.859,7.025,0.000,33.473
15349,3.525,0.000,3.317,2.336,12.859,7.025,0.000,32.958
15370,3.526,0.000,3.317,2.336,12.859,7.025,0.000,32.371
15391,3.527,0.000,3.317,2.336,12.859,7.025,0.000,31.849
15412,3.529,0.000,3.317,2.336,12.859,7.025,0.000,31.494
15433,3.530,0.000,3.317,2.336,12.859,7.025,0.000,30.967
15454,3.530,0.000,3.317,2.336,12.859,7.025,0.000,30.678
15475,3.532,0.000,3.317,2.336,12.859,7.025,0.000,30.305
15496,3.532,0.000,3.317,2.336,12.859,7.025,0.000,29.942
15517,3.533,0.000,3.317,2.336,12.859,7.025,0.000,29.645
15538,3.534,0.000,3.317,2.336,12.859,7.025,0.000,29.281
15559,3.535,0.000,3.317,2.336,12.859,7.025,0.000,29.015
15580,3.535,0.000,3.317,2.336,12.859,7.025,0.000,28.715
15601,3.536,0.000,3.317,2.336,12.859,7.025,0.000,28.539
15622,3.536,0.000,3.317,2.336,12.859,7.025,0.000,28.273
15643,3.537,0.000,3.317,2.336,12.859,7.025,0.000,28.118
15664,3.537,0.000,3.317,2.336,12.859,7.025,0.000,27.886
15685,3.538,0.000,3.317,2.336,12.859,7.025,0.000,27.745
15706,3.538,0.000,3.317,2.336,12.859,7.025,0.000,27.554
15727,3.539,0.000,3.317,2.336,12.859,7.025,0.000,27.343
15748,3.539,0.000,3.317,2.336,12.859,7.025,0.000,27.247
15769,3.539,0.000,3.317,2.336,12.859,7.025,0.000,27.085
15790,3.540,0.000,3.317,2.336,12.859,7.025,0.000,26.979
15811,3.540,0.000,3.317,2.336,12.859,7.025,0.000,26.830
15832,3.540,0.000,3.317,2.336,12.859,7.025,0.000,26.690
15853,3.540,0.000,3.317,2.336,12.859,7.025,0.000,26.617
15874,3.541,0.000,3.317,2.336,12.859,7.025,0.000,26.505
15895,3.541,0.000,3.317,2.336,12.859,7.025,0.000,26.369
15916,3.541,0.000,3.317,2.336,12.859,7.025,0.000,26.362
15937,3.541,0.000,3.317,2.336,12.859,7.025,0.000,26.281
15958,3.542,0.000,3.317,2.336,12.859,7.025,0.000,26.125
15979,3.542,0.000,3.317,2.336,12.859,7.025,0.000,26.111
16000,3.542,0.000,3.317,2.336,12.859,7.025,0.000,26.041
16021,3.542,0.000,3.317,2.336,12.859,7.025,0.000,25.993
16042,3.543,0.000,3.317,2.336,12.859,7.025,0.000,25.869
16063,3.543,0.000,3.317,2.336,12.859,7.025,0.000,25.837
16084,3.543,0.000,3.317,2.336,12.859,7.025,0.000,25.816
16105,3.543,0.000,3.317,2.336,12.859,7.025,0.000,25.741
16126,3.543,0.000,3.317,2.336,12.859,7.025,0.000,25.688
16147,3.543,0.000,3.317,2.336,12.859,7.025,0.000,25.621
16168,3.543,0.000,3.317,2.336,12.859,7.025,0.000,25.597
16189,3.544,0.000,3.317,2.336,12.859,7.025,0.000,25.563
16210,3.544,0.000,3.317,2.336,12.859,7.025,0.000,25.566
16231,3.544,0.000,3.317,2.336,12.859,7.025,0.000,25.484
16252,3.544,0.000,3.317,2.336,12.859,7.025,0.000,25.408
16273,3.544,0.000,3.317,2.336,12.859,7.025,0.000,25.469
16294,3.544,0.000,3.317,2.336,12.859,7.025,0.000,25.452
16315,3.544,0.000,3.317,2.336,12.859,7.025,0.000,25.363
16336,3.544,0.000,3.317,2.336,12.859,7.025,0.000,25.364
16357,3.544,0.000,3.317,2.336,12.859,7.025,0.000,25.319
16378,3.545,0.000,3.317,2.336,12.859,7.025,0.000,25.337
16399,3.545,0.000,3.317,2.336,12.859,7.025,0.000,25.281
16420,3.545,0.000,3.317,2.336,12.859,7.025,0.000,25.243
16441,3.545,0.000,3.317,2.336,12.859,7.025,0.000,25.222
16462,3.545,0.000,3.317,2.336,12.859,7.025,0.000,25.247
16483,3.545,0.000,3.317,2.336,12.859,7.025,0.000,25.223
16504,3.545,0.000,3.317,2.336,12.859,7.025,0.000,25.215
16525,3.545,0.000,3.317,2.336,12.859,7.025,0.000,25.162
16546,3.545,0.000,3.317,2.336,12.859,7.025,0.000,25.186
16567,3.545,0.000,3.317,2.336,12.859,7.025,0.000,25.124
16588,3.545,0.000,3.317,2.336,12.859,7.025,0.000,25.111
16609,3.546,0.000,3.317,2.336,12.859,7.025,0.000,25.088
16630,3.546,0.000,3.317,2.336,12.859,7.025,0.000,25.086
16651,3.546,0.000,3.317,2.336,12.859,7.025,0.000,25.107
16672,3.546,0.000,3.317,2.336,12.859,7.025,0.000,25.095
16693,3.546,0.000,3.317,2.336,12.859,7.025,0.000,25.098
16714,3.546,0.000,3.317,2.336,12.859,7.025,0.000,25.085
16735,3.546,0.000,3.317,2.336,12.859,7.025,0.000,25.061
16756,3.546,0.000,3.317,2.336,12.859,7.025,0.000,25.038
16777,3.546,0.000,3.317,2.336,12.859,7.025,0.000,25.029
16798,3.546,0.000,3.317,2.336,12.859,7.025,0.000,25.072
16819,3.546,0.000,3.317,2.336,12.859,7.025,0.000,25.052
16840,3.546,0.000,3.317,2.336,12.859,7.025,0.000,25.020
16861,3.546,0.000,3.317,2.336,12.859,7.025,0.000,25.027
16882,3.546,0.000,3.317,2.336,12.859,7.025,0.000,25.035
16903,3.546,0.000,3.317,2.336,12.859,7.025,0.000,25.060
16924,3.546,0.000,3.317,2.336,12.859,7.025,0.000,25.009
16945,3.546,0.000,3.317,2.336,12.859,7.025,0.000,25.011
16966,3.546,0.000,3.317,2.336,12.859,7.025,0.000,25.021
16987,3.546,0.000,3.317,2.336,12.859,7.025,0.000,24.978
17008,3.546,0.000,3.317,2.336,12.859,7.025,0.000,24.966
17029,3.546,0.000,3.317,2.336,12.859,7.025,0.000,24.975
17050,3.547,0.000,3.317,2.336,12.859,7.025,0.000,24.949
17071,3.546,0.000,3.317,2.336,12.859,7.025,0.000,24.945
17092,3.546,0.000,3.317,2.336,12.859,7.025,0.000,24.925
17113,3.547,0.000,3.317,2.336,12.859,7.025,0.000,24.954
17134,3.547,0.000,3.317,2.336,12.859,7.025,0.000,24.957
17155,3.547,0.000,3.317,2.336,12.859,7.025,0.000,24.943
17176,3.547,0.000,3.317,2.336,12.859,7.025,0.000,24.942
17197,3.547,0.000,3.317,2.336,12.859,7.025,0.000,24.903
17218,3.547,0.000,3.317,2.336,12.859,7.025,0.000,24.945
17239,3.547,0.000,3.317,2.336,12.859,7.025,0.000,24.915
17260,3.547,0.000,3.317,2.336,12.859,7.025,0.000,24.944
17281,3.547,0.000,3.317,2.336,12.859,7.025,0.000,24.917
17302,3.547,0.000,3.317,2.336,12.859,7.025,0.000,24.917
17323,3.547,0.000,3.317,2.336,12.859,7.025,0.000,24.887
17344,3.547,0.000,3.317,2.336,12.859,7.025,0.000,24.891
17365,3.547,0.000,3.317,2.336,12.859,7.025,0.000,24.893
17386,3.547,0.000,3.317,2.336,12.859,7.025,0.000,24.939
17407,3.547,0.000,3.317,2.336,12.859,7.025,0.000,24.885
17428,3.547,0.000,3.317,2.336,12.859,7.025,0.000,24.885
17449,3.547,0.000,3.317,2.336,12.859,7.025,0.000,24.852
17470,3.547,0.000,3.317,2.336,12.859,7.025,0.000,24.852
17491,3.547,0.000,3.317,2.336,12.859,7.025,0.000,24.918
17512,3.547,0.000,3.317,2.336,12.859,7.025,0.000,24.863
17533,3.547,0.000,3.317,2.336,12.859,7.025,0.000,24.857
17554,3.547,0.000,3.317,2.336,12.859,7.025,0.000,24.882
17575,3.547,0.000,3.317,2.336,12.859,7.025,0.000,24.941
17596,3.547,0.000,3.317,2.336,12.859,7.025,0.000,24.911
17617,3.547,0.000,3.317,2.336,12.859,7.025,0.000,24.913
17638,3.547,0.000,3.317,2.336,12.859,7.025,0.000,24.909
17659,3.547,0.000,3.317,2.336,12.859,7.025,0.000,24.864
17680,3.548,0.000,3.317,2.336,12.859,7.025,0.000,24.895
17701,3.547,0.000,3.317,2.336,12.859,7.025,0.000,24.869
17722,3.547,0.000,3.317,2.336,12.859,7.025,0.000,24.875
17743,3.548,0.000,3.317,2.336,12.859,7.025,0.000,24.858
17764,3.547,0.000,3.317,2.336,12.859,7.025,0.000,24.910
17785,3.547,0.000,3.317,2.336,12.859,7.025,0.000,24.894
17806,3.548,0.000,3.317,2.336,12.859,7.025,0.000,24.872
17827,3.548,0.000,3.317,2.336,12.859,7.025,0.000,24.893
17848,3.548,0.000,3.317,2.336,12.859,7.025,0.000,24.885
17869,3.548,0.000,3.317,2.336,12.859,7.025,0.000,24.921
17890,3.548,0.000,3.317,2.336,12.859,7.025,0.000,24.858
17911,3.548,0.000,3.317,2.336,12.859,7.025,0.000,24.922
17932,3.548,0.000,3.317,2.336,12.859,7.025,0.000,24.868
17953,3.548,0.000,3.317,2.336,12.859,7.025,0.000,24.889
17974,3.548,0.000,3.317,2.336,12.859,7.025,0.000,24.909
17995,3.548,0.000,3.317,2.336,12.859,7.025,0.000,24.865
18016,3.548,0.000,3.317,2.336,12.859,7.025,0.000,24.924
18037,3.548,0.000,3.317,2.336,12.859,7.025,0.000,24.895
18058,3.548,0.000,3.317,2.336,12.859,7.025,0.000,24.862
18079,3.548,0.000,3.317,2.336,12.859,7.025,0.000,24.892
18100,3.548,0.000,3.317,2.336,12.859,7.025,0.000,24.884
18121,3.548,0.000,3.317,2.336,12.859,7.025,0.000,24.889
18142,3.548,0.000,3.317,2.336,12.859,7.025,0.000,24.885
18163,3.548,0.000,3.317,2.336,12.859,7.025,0.000,24.916
18184,3.548,0.000,3.317,2.336,12.859,7.025,0.000,24.898
18205,3.548,0.000,3.317,2.336,12.859,7.025,0.000,24.890
18226,3.548,0.000,3.317,2.336,12.859,7.025,0.000,24.897
18247,3.548,0.000,3.317,2.336,12.859,7.025,0.000,24.889
18268,3.548,0.000,3.317,2.336,12.859,7.025,0.000,24.855
18289,3.548,0.000,3.317,2.336,12.859,7.025,0.000,24.874
18310,3.548,0.000,3.317,2.336,12.859,7.025,0.000,24.891
18331,3.548,0.000,3.317,2.336,12.859,7.025,0.000,24.863
18352,3.548,0.000,3.317,2.336,12.859,7.025,0.000,24.878
18373,3.548,0.000,3.317,2.336,12.859,7.025,0.000,24.840
18394,3.548,0.000,3.317,2.336,12.859,7.025,0.000,24.936
18415,3.548,0.000,3.317,2.336,12.859,7.025,0.000,24.862
18436,3.548,0.000,3.317,2.336,12.859,7.025,0.000,24.862
18457,3.548,0.000,3.317,2.336,12.859,7.025,0.000,24.836
18478,3.548,0.000,3.317,2.336,12.859,7.025,0.000,24.832
18499,3.548,0.000,3.317,2.336,12.859,7.025,0.000,24.862
18509,3.548,0.000,3.317,2.336,12.859,7.025,0.000,24.898