File: data/T35/3C/1.csv
time_s,voltage_v,current_a,chargecapacity_ah,dischargecapacity_ah,charge_energy_wh,discharge_energy_wh,voltagedot_v_per_s,temp_degc
1,4.102,0.000,0.000,0.000,0.000,0.000,0.000,34.811
12,4.103,0.000,0.000,0.000,0.000,0.000,0.000,34.732
23,4.102,0.000,0.000,0.000,0.000,0.000,0.000,34.805
34,4.102,0.000,0.000,0.000,0.000,0.000,0.000,34.814
45,4.103,0.000,0.000,0.000,0.000,0.000,0.000,34.764
56,4.103,0.000,0.000,0.000,0.000,0.000,0.000,34.814
66,4.197,1.625,0.003,0.000,0.011,0.001,0.001,34.797
77,4.200,1.554,0.007,0.000,0.031,0.001,0.000,34.842
88,4.200,1.476,0.012,0.000,0.051,0.001,0.000,34.840
99,4.200,1.421,0.016,0.000,0.069,0.001,0.000,34.843
110,4.200,1.378,0.021,0.000,0.087,0.001,0.000,34.849
121,4.200,1.342,0.025,0.000,0.105,0.001,0.000,34.917
132,4.200,1.309,0.029,0.000,0.122,0.001,0.000,34.934
143,4.200,1.279,0.033,0.000,0.138,0.001,0.000,34.933
154,4.200,1.251,0.037,0.000,0.154,0.001,0.000,34.986
165,4.200,1.226,0.041,0.000,0.170,0.001,0.000,35.013
176,4.200,1.201,0.044,0.000,0.186,0.001,0.000,35.016
187,4.200,1.177,0.048,0.000,0.201,0.001,0.000,34.988
198,4.200,1.152,0.051,0.000,0.216,0.001,0.000,35.048
209,4.200,1.129,0.055,0.000,0.231,0.001,0.000,35.021
220,4.200,1.107,0.058,0.000,0.245,0.001,0.000,35.052
231,4.200,1.084,0.062,0.000,0.259,0.001,0.000,35.027
242,4.200,1.063,0.065,0.000,0.273,0.001,0.000,35.056
253,4.200,1.040,0.068,0.000,0.286,0.001,0.000,35.091
264,4.200,1.019,0.071,0.000,0.299,0.001,0.000,35.029
275,4.200,0.997,0.074,0.000,0.312,0.001,0.000,35.044
286,4.200,0.976,0.077,0.000,0.325,0.001,0.000,35.043
297,4.200,0.955,0.080,0.000,0.337,0.001,0.000,35.041
308,4.200,0.934,0.083,0.000,0.350,0.001,0.000,35.099
319,4.200,0.914,0.086,0.000,0.361,0.001,0.000,35.103
330,4.200,0.894,0.089,0.000,0.373,0.001,0.000,35.105
341,4.200,0.874,0.092,0.000,0.384,0.001,0.000,35.080
352,4.200,0.854,0.094,0.000,0.395,0.001,0.000,35.106
363,4.200,0.834,0.097,0.000,0.406,0.001,0.000,35.082
374,4.200,0.815,0.099,0.000,0.417,0.001,0.000,35.075
385,4.200,0.794,0.102,0.000,0.427,0.001,0.000,35.085
396,4.200,0.776,0.104,0.000,0.437,0.001,0.000,35.113
407,4.200,0.758,0.106,0.000,0.447,0.001,0.000,35.123
418,4.200,0.739,0.109,0.000,0.457,0.001,0.000,35.112
429,4.200,0.721,0.111,0.000,0.466,0.001,0.000,35.104
440,4.200,0.703,0.113,0.000,0.475,0.001,0.000,35.133
451,4.200,0.686,0.115,0.000,0.484,0.001,0.000,35.064
462,4.200,0.669,0.117,0.000,0.493,0.001,0.000,35.105
473,4.200,0.652,0.119,0.000,0.501,0.001,0.000,35.107
484,4.200,0.636,0.121,0.000,0.509,0.001,0.000,35.097
495,4.200,0.619,0.123,0.000,0.517,0.001,0.000,35.106
506,4.200,0.603,0.125,0.000,0.525,0.001,0.000,35.115
517,4.200,0.587,0.127,0.000,0.533,0.001,0.000,35.110
528,4.200,0.571,0.129,0.000,0.540,0.001,0.000,35.092
539,4.200,0.556,0.130,0.000,0.548,0.001,0.000,35.129
550,4.200,0.542,0.132,0.000,0.555,0.001,0.000,35.037
561,4.200,0.528,0.134,0.000,0.561,0.001,0.000,35.096
572,4.200,0.514,0.135,0.000,0.568,0.001,0.000,35.055
583,4.200,0.500,0.137,0.000,0.575,0.001,0.000,35.056
594,4.200,0.487,0.138,0.000,0.581,0.001,0.000,35.075
605,4.200,0.474,0.140,0.000,0.587,0.001,0.000,35.085
616,4.200,0.461,0.141,0.000,0.593,0.001,0.000,35.045
627,4.200,0.449,0.143,0.000,0.599,0.001,0.000,35.075
638,4.200,0.437,0.144,0.000,0.605,0.001,0.000,35.046
649,4.200,0.425,0.145,0.000,0.610,0.001,0.000,35.010
660,4.200,0.415,0.147,0.000,0.616,0.001,0.000,35.010
671,4.200,0.403,0.148,0.000,0.621,0.001,0.000,35.064
682,4.200,0.393,0.149,0.000,0.626,0.001,0.000,35.051
693,4.200,0.383,0.150,0.000,0.631,0.001,0.000,35.019
704,4.200,0.372,0.151,0.000,0.636,0.001,0.000,34.979
715,4.200,0.363,0.152,0.000,0.640,0.001,0.000,35.037
726,4.200,0.354,0.154,0.000,0.645,0.001,0.000,35.009
737,4.200,0.343,0.155,0.000,0.650,0.001,0.000,34.977
748,4.200,0.336,0.156,0.000,0.654,0.001,0.000,35.000
759,4.200,0.325,0.157,0.000,0.658,0.001,0.000,34.944
770,4.200,0.318,0.158,0.000,0.662,0.001,0.000,35.004
781,4.200,0.309,0.159,0.000,0.666,0.001,0.000,34.997
792,4.200,0.303,0.160,0.000,0.670,0.001,0.000,34.934
803,4.200,0.295,0.160,0.000,0.674,0.001,0.000,34.938
814,4.200,0.287,0.161,0.000,0.678,0.001,0.000,34.986
825,4.200,0.280,0.162,0.000,0.681,0.001,0.000,35.001
836,4.200,0.273,0.163,0.000,0.685,0.001,0.000,34.996
847,4.200,0.267,0.164,0.000,0.688,0.001,0.000,34.977
858,4.200,0.261,0.165,0.000,0.692,0.001,0.000,34.975
869,4.200,0.254,0.165,0.000,0.695,0.001,0.000,34.927
880,4.200,0.248,0.166,0.000,0.698,0.001,0.000,34.952
891,4.200,0.242,0.167,0.000,0.701,0.001,0.000,34.962
902,4.200,0.237,0.168,0.000,0.705,0.001,0.000,34.945
913,4.200,0.232,0.168,0.000,0.708,0.001,0.000,34.930
924,4.200,0.226,0.169,0.000,0.710,0.001,0.000,34.963
935,4.200,0.221,0.170,0.000,0.713,0.001,0.000,34.975
946,4.200,0.216,0.171,0.000,0.716,0.001,0.000,34.910
957,4.200,0.211,0.171,0.000,0.719,0.001,0.000,34.948
968,4.200,0.208,0.172,0.000,0.722,0.001,0.000,34.966
979,4.200,0.203,0.172,0.000,0.724,0.001,0.000,34.923
990,4.200,0.197,0.173,0.000,0.727,0.001,0.000,34.939
1001,4.200,0.193,0.174,0.000,0.729,0.001,0.000,34.944
1012,4.200,0.189,0.174,0.000,0.732,0.001,0.000,34.957
1023,4.200,0.185,0.175,0.000,0.734,0.001,0.000,34.916
1034,4.200,0.181,0.175,0.000,0.736,0.001,0.000,34.890
1045,4.200,0.178,0.176,0.000,0.739,0.001,0.000,34.945
1056,4.200,0.173,0.176,0.000,0.741,0.001,0.000,34.907
1067,4.200,0.170,0.177,0.000,0.743,0.001,0.000,34.922
1078,4.200,0.167,0.177,0.000,0.745,0.001,0.000,34.921
1089,4.200,0.162,0.178,0.000,0.747,0.001,0.000,34.891
1100,4.200,0.159,0.178,0.000,0.750,0.001,0.000,34.955
1111,4.200,0.157,0.179,0.000,0.752,0.001,0.000,34.901
1122,4.200,0.154,0.179,0.000,0.754,0.001,0.000,34.928
1133,4.200,0.150,0.180,0.000,0.756,0.001,0.000,34.925
1144,4.200,0.147,0.180,0.000,0.757,0.001,0.000,34.930
1155,4.200,0.145,0.181,0.000,0.759,0.001,0.000,34.878
1166,4.200,0.142,0.181,0.000,0.761,0.001,0.000,34.923
1177,4.200,0.139,0.182,0.000,0.763,0.001,0.000,34.861
1188,4.200,0.137,0.182,0.000,0.765,0.001,0.000,34.913
1199,4.200,0.133,0.182,0.000,0.766,0.001,0.000,34.890
1210,4.200,0.130,0.183,0.000,0.768,0.001,0.000,34.865
1221,4.200,0.129,0.183,0.000,0.770,0.001,0.000,34.876
1232,4.200,0.126,0.184,0.000,0.771,0.001,0.000,34.896
1243,4.200,0.123,0.184,0.000,0.773,0.001,0.000,34.952
1254,4.200,0.121,0.184,0.000,0.775,0.001,0.000,34.876
1265,4.200,0.119,0.185,0.000,0.776,0.001,0.000,34.892
1276,4.200,0.117,0.185,0.000,0.778,0.001,0.000,34.862
1287,4.200,0.114,0.186,0.000,0.779,0.001,0.000,34.861
1298,4.200,0.113,0.186,0.000,0.781,0.001,0.000,34.882
1309,4.200,0.110,0.186,0.000,0.782,0.001,0.000,34.930
1320,4.200,0.109,0.187,0.000,0.783,0.001,0.000,34.866
1331,4.200,0.106,0.187,0.000,0.785,0.001,0.000,34.884
1342,4.200,0.104,0.187,0.000,0.786,0.001,0.000,34.876
1353,4.200,0.103,0.187,0.000,0.787,0.001,0.000,34.854
1364,4.200,0.102,0.188,0.000,0.789,0.001,0.000,34.872
1375,4.200,0.100,0.188,0.000,0.790,0.001,0.000,34.907
1386,4.200,0.097,0.188,0.000,0.791,0.001,0.000,34.880
1397,4.200,0.096,0.189,0.000,0.793,0.001,0.000,34.836
1408,4.200,0.094,0.189,0.000,0.794,0.001,0.000,34.854
1419,4.200,0.093,0.189,0.000,0.795,0.001,0.000,34.870
1430,4.200,0.091,0.190,0.000,0.796,0.001,0.000,34.864
1441,4.200,0.089,0.190,0.000,0.797,0.001,0.000,34.859
1452,4.200,0.089,0.190,0.000,0.798,0.001,0.000,34.832
1463,4.200,0.087,0.190,0.000,0.800,0.001,0.000,34.833
1474,4.200,0.085,0.191,0.000,0.801,0.001,0.000,34.871
1485,4.200,0.084,0.191,0.000,0.802,0.001,0.000,34.832
1496,4.200,0.082,0.191,0.000,0.803,0.001,0.000,34.838
1507,4.200,0.081,0.191,0.000,0.804,0.001,0.000,34.839
1518,4.200,0.079,0.192,0.000,0.805,0.001,0.000,34.818
1529,4.200,0.078,0.192,0.000,0.806,0.001,0.000,34.919
1540,4.200,0.076,0.192,0.000,0.807,0.001,0.000,34.887
1551,4.200,0.075,0.192,0.000,0.808,0.001,0.000,34.860
1562,4.200,0.074,0.193,0.000,0.809,0.001,0.000,34.828
1573,4.200,0.073,0.193,0.000,0.810,0.001,0.000,34.866
1584,4.200,0.072,0.193,0.000,0.811,0.001,0.000,34.860
1595,4.200,0.071,0.193,0.000,0.812,0.001,0.000,34.880
1606,4.200,0.069,0.193,0.000,0.812,0.001,0.000,34.857
1617,4.200,0.069,0.194,0.000,0.813,0.001,0.000,34.842
1628,4.200,0.067,0.194,0.000,0.814,0.001,0.000,34.867
1639,4.200,0.066,0.194,0.000,0.815,0.001,0.000,34.812
1650,4.196,0.000,0.194,0.000,0.816,0.001,0.000,34.812
1661,4.195,0.000,0.194,0.000,0.816,0.001,0.000,34.903
1672,4.195,0.000,0.194,0.000,0.816,0.001,0.000,34.854
1683,4.195,0.000,0.194,0.000,0.816,0.001,0.000,34.831
1694,4.195,0.000,0.194,0.000,0.816,0.001,0.000,34.863
1705,4.194,0.000,0.194,0.000,0.816,0.001,0.000,34.851
1716,4.194,0.000,0.194,0.000,0.816,0.001,0.000,34.827
1727,4.194,0.000,0.194,0.000,0.816,0.001,0.000,34.839
1738,4.194,0.000,0.194,0.000,0.816,0.001,0.000,34.817
1749,4.194,0.000,0.194,0.000,0.816,0.001,0.000,34.823
1760,4.194,0.000,0.194,0.000,0.816,0.001,0.000,34.806
1771,4.193,0.000,0.194,0.000,0.816,0.001,0.000,34.831
1782,4.193,0.000,0.194,0.000,0.816,0.001,0.000,34.815
1793,4.193,0.000,0.194,0.000,0.816,0.001,0.000,34.811
1804,4.193,0.000,0.194,0.000,0.816,0.001,0.000,34.796
1815,4.193,0.000,0.194,0.000,0.816,0.001,0.000,34.868
1826,4.193,0.000,0.194,0.000,0.816,0.001,0.000,34.831
1837,4.193,0.000,0.194,0.000,0.816,0.001,0.000,34.782
1848,4.193,0.000,0.194,0.000,0.816,0.001,0.000,34.854
1859,4.193,0.000,0.194,0.000,0.816,0.001,0.000,34.790
1870,4.193,0.000,0.194,0.000,0.816,0.001,0.000,34.853
1881,4.192,0.000,0.194,0.000,0.816,0.001,0.000,34.852
1892,4.192,0.000,0.194,0.000,0.816,0.001,0.000,34.816
1903,4.192,0.000,0.194,0.000,0.816,0.001,0.000,34.831
1914,4.192,0.000,0.194,0.000,0.816,0.001,0.000,34.824
1925,4.192,0.000,0.194,0.000,0.816,0.001,0.000,34.792
1936,4.192,0.000,0.194,0.000,0.816,0.001,0.000,34.844
1947,4.192,0.000,0.194,0.000,0.816,0.001,0.000,34.820
1958,4.192,0.000,0.194,0.000,0.816,0.001,0.000,34.834
1969,4.192,0.000,0.194,0.000,0.816,0.001,0.000,34.860
1980,4.192,0.000,0.194,0.000,0.816,0.001,0.000,34.858
1991,4.192,0.000,0.194,0.000,0.816,0.001,0.000,34.836
2002,4.192,0.000,0.194,0.000,0.816,0.001,0.000,34.830
2013,4.191,0.000,0.194,0.000,0.816,0.001,0.000,34.880
2024,4.192,0.000,0.194,0.000,0.816,0.001,0.000,34.826
2035,4.192,0.000,0.194,0.000,0.816,0.001,0.000,34.844
2046,4.191,0.000,0.194,0.000,0.816,0.001,0.000,34.809
2057,4.191,0.000,0.194,0.000,0.816,0.001,0.000,34.838
2068,4.191,0.000,0.194,0.000,0.816,0.001,0.000,34.837
2079,4.191,0.000,0.194,0.000,0.816,0.001,0.000,34.803
2090,4.191,0.000,0.194,0.000,0.816,0.001,0.000,34.851
2101,4.191,0.000,0.194,0.000,0.816,0.001,0.000,34.817
2112,4.191,0.000,0.194,0.000,0.816,0.001,0.000,34.851
2123,4.191,0.000,0.194,0.000,0.816,0.001,0.000,34.844
2134,4.191,0.000,0.194,0.000,0.816,0.001,0.000,34.817
2145,4.191,0.000,0.194,0.000,0.816,0.001,0.000,34.848
2156,4.191,0.000,0.194,0.000,0.816,0.001,0.000,34.822
2167,4.191,0.000,0.194,0.000,0.816,0.001,0.000,34.860
2178,4.191,0.000,0.194,0.000,0.816,0.001,0.000,34.805
2189,4.191,0.000,0.194,0.000,0.816,0.001,0.000,34.870
2200,4.191,0.000,0.194,0.000,0.816,0.001,0.000,34.810
2211,4.191,0.000,0.194,0.000,0.816,0.001,0.000,34.830
2222,4.191,0.000,0.194,0.000,0.816,0.001,0.000,34.795
2233,4.191,0.000,0.194,0.000,0.816,0.001,0.000,34.879
2244,4.191,0.000,0.194,0.000,0.816,0.001,0.000,34.849
2255,4.190,0.000,0.194,0.000,0.816,0.001,0.000,34.826
2266,4.190,0.000,0.194,0.000,0.816,0.001,0.000,34.848
2277,4.190,0.000,0.194,0.000,0.816,0.001,0.000,34.804
2288,4.190,0.000,0.194,0.000,0.816,0.001,0.000,34.817
2299,4.190,0.000,0.194,0.000,0.816,0.001,0.000,34.834
2310,4.190,0.000,0.194,0.000,0.816,0.001,0.000,34.817
2321,4.190,0.000,0.194,0.000,0.816,0.001,0.000,34.815
2332,4.190,0.000,0.194,0.000,0.816,0.001,0.000,34.839
2343,4.190,0.000,0.194,0.000,0.816,0.001,0.000,34.795
2354,4.190,0.000,0.194,0.000,0.816,0.001,0.000,34.814
2365,4.190,0.000,0.194,0.000,0.816,0.001,0.000,34.829
2376,4.190,0.000,0.194,0.000,0.816,0.001,0.000,34.820
2387,4.190,0.000,0.194,0.000,0.816,0.001,0.000,34.875
2398,4.190,0.000,0.194,0.000,0.816,0.001,0.000,34.805
2409,4.190,0.000,0.194,0.000,0.816,0.001,0.000,34.819
2420,4.190,0.000,0.194,0.000,0.816,0.001,0.000,34.851
2431,4.190,0.000,0.194,0.000,0.816,0.001,0.000,34.855
2442,4.190,0.000,0.194,0.000,0.816,0.001,0.000,34.842
2453,4.190,0.000,0.194,0.000,0.816,0.001,0.000,34.850
2464,4.190,0.000,0.194,0.000,0.816,0.001,0.000,34.827
2475,4.190,0.000,0.194,0.000,0.816,0.001,0.000,34.793
2486,4.190,0.000,0.194,0.000,0.816,0.001,0.000,34.804
2497,4.190,0.000,0.194,0.000,0.816,0.001,0.000,34.778
2508,4.190,0.000,0.194,0.000,0.816,0.001,0.000,34.829
2519,4.190,0.000,0.194,0.000,0.816,0.001,0.000,34.807
2530,4.190,0.000,0.194,0.000,0.816,0.001,0.000,34.839
2541,4.190,0.000,0.194,0.000,0.816,0.001,0.000,34.774
2552,4.190,0.000,0.194,0.000,0.816,0.001,0.000,34.799
2563,4.190,0.000,0.194,0.000,0.816,0.001,0.000,34.807
2574,4.190,0.000,0.194,0.000,0.816,0.001,0.000,34.859
2585,4.190,0.000,0.194,0.000,0.816,0.001,0.000,34.820
2596,4.190,0.000,0.194,0.000,0.816,0.001,0.000,34.796
2607,4.190,0.000,0.194,0.000,0.816,0.001,0.000,34.806
2618,4.190,0.000,0.194,0.000,0.816,0.001,0.000,34.809
2629,4.190,0.000,0.194,0.000,0.816,0.001,0.000,34.812
2640,4.189,0.000,0.194,0.000,0.816,0.001,0.000,34.855
2651,4.189,0.000,0.194,0.000,0.816,0.001,0.000,34.816
2662,4.189,0.000,0.194,0.000,0.816,0.001,0.000,34.798
2673,4.189,0.000,0.194,0.000,0.816,0.001,0.000,34.819
2684,4.189,0.000,0.194,0.000,0.816,0.001,0.000,34.834
2695,4.189,0.000,0.194,0.000,0.816,0.001,0.000,34.786
2706,4.189,0.000,0.194,0.000,0.816,0.001,0.000,34.773
2717,4.189,0.000,0.194,0.000,0.816,0.001,0.000,34.821
2728,4.189,0.000,0.194,0.000,0.816,0.001,0.000,34.812
2739,4.189,0.000,0.194,0.000,0.816,0.001,0.000,34.789
2750,4.189,0.000,0.194,0.000,0.816,0.001,0.000,34.821
2761,4.189,0.000,0.194,0.000,0.816,0.001,0.000,34.788
2772,4.189,0.000,0.194,0.000,0.816,0.001,0.000,34.784
2783,4.189,0.000,0.194,0.000,0.816,0.001,0.000,34.835
2794,4.189,0.000,0.194,0.000,0.816,0.001,0.000,34.775
2805,4.189,0.000,0.194,0.000,0.816,0.001,0.000,34.781
2816,4.189,0.000,0.194,0.000,0.816,0.001,0.000,34.827
2827,4.189,0.000,0.194,0.000,0.816,0.001,0.000,34.837
2838,4.189,0.000,0.194,0.000,0.816,0.001,0.000,34.803
2849,4.189,0.000,0.194,0.000,0.816,0.001,0.000,34.781
2860,4.189,0.000,0.194,0.000,0.816,0.001,0.000,34.791
2871,4.189,0.000,0.194,0.000,0.816,0.001,0.000,34.812
2882,4.189,0.000,0.194,0.000,0.816,0.001,0.000,34.812
2893,4.189,0.000,0.194,0.000,0.816,0.001,0.000,34.826
2904,4.189,0.000,0.194,0.000,0.816,0.001,0.000,34.805
2915,4.189,0.000,0.194,0.000,0.816,0.001,0.000,34.816
2926,4.189,0.000,0.194,0.000,0.816,0.001,0.000,34.795
2937,4.189,0.000,0.194,0.000,0.816,0.001,0.000,34.781
2948,4.189,0.000,0.194,0.000,0.816,0.001,0.000,34.824
2959,4.189,0.000,0.194,0.000,0.816,0.001,0.000,34.773
2970,4.189,0.000,0.194,0.000,0.816,0.001,0.000,34.796
2981,4.189,0.000,0.194,0.000,0.816,0.001,0.000,34.834
2992,4.189,0.000,0.194,0.000,0.816,0.001,0.000,34.800
3003,4.189,0.000,0.194,0.000,0.816,0.001,0.000,34.858
3014,4.189,0.000,0.194,0.000,0.816,0.001,0.000,34.804
3025,4.189,0.000,0.194,0.000,0.816,0.001,0.000,34.778
3036,4.189,0.000,0.194,0.000,0.816,0.001,0.000,34.835
3047,4.189,0.000,0.194,0.000,0.816,0.001,0.000,34.826
3058,4.189,0.000,0.194,0.000,0.816,0.001,0.000,34.806
3069,4.189,0.000,0.194,0.000,0.816,0.001,0.000,34.821
3080,4.189,0.000,0.194,0.000,0.816,0.001,0.000,34.816
3091,4.189,0.000,0.194,0.000,0.816,0.001,0.000,34.779
3102,4.189,0.000,0.194,0.000,0.816,0.001,0.000,34.821
3113,4.188,0.000,0.194,0.000,0.816,0.001,0.000,34.833
3124,4.189,0.000,0.194,0.000,0.816,0.001,0.000,34.885
3135,4.189,0.000,0.194,0.000,0.816,0.001,0.000,34.809
3146,4.188,0.000,0.194,0.000,0.816,0.001,0.000,34.798
3157,4.189,0.000,0.194,0.000,0.816,0.001,0.000,34.840
3168,4.188,0.000,0.194,0.000,0.816,0.001,0.000,34.853
3179,4.188,0.000,0.194,0.000,0.816,0.001,0.000,34.860
3190,4.188,0.000,0.194,0.000,0.816,0.001,0.000,34.814
3201,4.188,0.000,0.194,0.000,0.816,0.001,0.000,34.809
3212,4.188,0.000,0.194,0.000,0.816,0.001,0.000,34.834
3223,4.188,0.000,0.194,0.000,0.816,0.001,0.000,34.853
3234,4.188,0.000,0.194,0.000,0.816,0.001,0.000,34.831
3245,4.188,0.000,0.194,0.000,0.816,0.001,0.000,34.791
3256,4.188,0.000,0.194,0.000,0.816,0.001,0.000,34.795
3267,4.188,0.000,0.194,0.000,0.816,0.001,0.000,34.848
3278,4.188,0.000,0.194,0.000,0.816,0.001,0.000,34.817
3289,4.188,0.000,0.194,0.000,0.816,0.001,0.000,34.836
3300,4.188,0.000,0.194,0.000,0.816,0.001,0.000,34.834
3311,4.188,0.000,0.194,0.000,0.816,0.001,0.000,34.813
3322,4.188,0.000,0.194,0.000,0.816,0.001,0.000,34.823
3333,4.188,0.000,0.194,0.000,0.816,0.001,0.000,34.807
3344,4.188,0.000,0.194,0.000,0.816,0.001,0.000,34.835
3355,4.188,0.000,0.194,0.000,0.816,0.001,0.000,34.849
3366,4.188,0.000,0.194,0.000,0.816,0.001,0.000,34.859
3377,4.188,0.000,0.194,0.000,0.816,0.001,0.000,34.850
3388,4.188,0.000,0.194,0.000,0.816,0.001,0.000,34.785
3399,4.188,0.000,0.194,0.000,0.816,0.001,0.000,34.855
3410,4.188,0.000,0.194,0.000,0.816,0.001,0.000,34.815
3421,4.188,0.000,0.194,0.000,0.816,0.001,0.000,34.816
3432,4.188,0.000,0.194,0.000,0.816,0.001,0.000,34.796
3443,4.188,0.000,0.194,0.000,0.816,0.001,0.000,34.813
3454,4.188,0.000,0.194,0.000,0.816,0.001,0.000,34.850
3465,4.188,0.000,0.194,0.000,0.816,0.001,0.000,34.883
3476,4.188,0.000,0.194,0.000,0.816,0.001,0.000,34.830
3487,4.188,0.000,0.194,0.000,0.816,0.001,0.000,34.824
3498,4.188,0.000,0.194,0.000,0.816,0.001,0.000,34.826
3509,4.188,0.000,0.194,0.000,0.816,0.001,0.000,34.837
3520,4.188,0.000,0.194,0.000,0.816,0.001,0.000,34.831
3531,4.188,0.000,0.194,0.000,0.816,0.001,0.000,34.879
3542,4.188,0.000,0.194,0.000,0.816,0.001,0.000,34.842
3553,4.188,0.000,0.194,0.000,0.816,0.001,0.000,34.821
3564,4.188,0.000,0.194,0.000,0.816,0.001,0.000,34.822
3575,4.188,0.000,0.194,0.000,0.816,0.001,0.000,34.843
3586,4.188,0.000,0.194,0.000,0.816,0.001,0.000,34.849
3597,4.188,0.000,0.194,0.000,0.816,0.001,0.000,34.845
3608,4.188,0.000,0.194,0.000,0.816,0.001,0.000,34.832
3619,4.188,0.000,0.194,0.000,0.816,0.001,0.000,34.834
3630,4.188,0.000,0.194,0.000,0.816,0.001,0.000,34.851
3641,4.188,0.000,0.194,0.000,0.816,0.001,0.000,34.817
3652,4.188,0.000,0.194,0.000,0.816,0.001,0.000,34.860
3663,4.188,0.000,0.194,0.000,0.816,0.001,0.000,34.808
3674,4.188,0.000,0.194,0.000,0.816,0.001,0.000,34.809
3685,4.188,0.000,0.194,0.000,0.816,0.001,0.000,34.813
3696,4.188,0.000,0.194,0.000,0.816,0.001,0.000,34.822
3707,4.188,0.000,0.194,0.000,0.816,0.001,0.000,34.826
3718,4.187,0.000,0.194,0.000,0.816,0.001,0.000,34.825
3729,4.188,0.000,0.194,0.000,0.816,0.001,0.000,34.806
3740,4.188,0.000,0.194,0.000,0.816,0.001,0.000,34.810
3751,4.188,0.000,0.194,0.000,0.816,0.001,0.000,34.802
3762,4.188,0.000,0.194,0.000,0.816,0.001,0.000,34.801
3773,4.188,0.000,0.194,0.000,0.816,0.001,0.000,34.813
3784,4.187,0.000,0.194,0.000,0.816,0.001,0.000,34.816
3795,4.187,0.000,0.194,0.000,0.816,0.001,0.000,34.840
3806,4.187,0.000,0.194,0.000,0.816,0.001,0.000,34.833
3817,4.187,0.000,0.194,0.000,0.816,0.001,0.000,34.857
3828,4.188,0.000,0.194,0.000,0.816,0.001,0.000,34.839
3839,4.188,0.000,0.194,0.000,0.816,0.001,0.000,34.833
3850,4.188,0.000,0.194,0.000,0.816,0.001,0.000,34.876
3861,4.187,0.000,0.194,0.000,0.816,0.001,0.000,34.795
3872,4.188,0.000,0.194,0.000,0.816,0.001,0.000,34.833
3883,4.187,0.000,0.194,0.000,0.816,0.001,0.000,34.842
3894,4.187,0.000,0.194,0.000,0.816,0.001,0.000,34.854
3905,4.187,0.000,0.194,0.000,0.816,0.001,0.000,34.873
3916,4.187,0.000,0.194,0.000,0.816,0.001,0.000,34.845
3927,4.187,0.000,0.194,0.000,0.816,0.001,0.000,34.797
3938,4.187,0.000,0.194,0.000,0.816,0.001,0.000,34.856
3949,4.187,0.000,0.194,0.000,0.816,0.001,0.000,34.833
3960,4.187,0.000,0.194,0.000,0.816,0.001,0.000,34.833
3971,4.187,0.000,0.194,0.000,0.816,0.001,0.000,34.831
3982,4.187,0.000,0.194,0.000,0.816,0.001,0.000,34.833
3993,4.187,0.000,0.194,0.000,0.816,0.001,0.000,34.823
4004,4.187,0.000,0.194,0.000,0.816,0.001,0.000,34.837
4015,4.187,0.000,0.194,0.000,0.816,0.001,0.000,34.860
4026,4.187,0.000,0.194,0.000,0.816,0.001,0.000,34.859
4037,4.187,0.000,0.194,0.000,0.816,0.001,0.000,34.847
4048,4.187,0.000,0.194,0.000,0.816,0.001,0.000,34.882
4059,4.187,0.000,0.194,0.000,0.816,0.001,0.000,34.857
4070,4.187,0.000,0.194,0.000,0.816,0.001,0.000,34.814
4081,4.187,0.000,0.194,0.000,0.816,0.001,0.000,34.838
4092,4.187,0.000,0.194,0.000,0.816,0.001,0.000,34.827
4103,4.187,0.000,0.194,0.000,0.816,0.001,0.000,34.829
4114,4.187,0.000,0.194,0.000,0.816,0.001,0.000,34.818
4125,4.187,0.000,0.194,0.000,0.816,0.001,0.000,34.830
4136,4.187,0.000,0.194,0.000,0.816,0.001,0.000,34.823
4147,4.187,0.000,0.194,0.000,0.816,0.001,0.000,34.786
4158,4.187,0.000,0.194,0.000,0.816,0.001,0.000,34.838
4169,4.187,0.000,0.194,0.000,0.816,0.001,0.000,34.830
4180,4.187,0.000,0.194,0.000,0.816,0.001,0.000,34.793
4191,4.187,0.000,0.194,0.000,0.816,0.001,0.000,34.784
4202,4.187,0.000,0.194,0.000,0.816,0.001,0.000,34.840
4213,4.187,0.000,0.194,0.000,0.816,0.001,0.000,34.815
4224,4.187,0.000,0.194,0.000,0.816,0.001,0.000,34.843
4235,4.187,0.000,0.194,0.000,0.816,0.001,0.000,34.814
4246,4.187,0.000,0.194,0.000,0.816,0.001,0.000,34.807
4257,4.187,0.000,0.194,0.000,0.816,0.001,0.000,34.846
4268,4.187,0.000,0.194,0.000,0.816,0.001,0.000,34.821
4279,4.187,0.000,0.194,0.000,0.816,0.001,0.000,34.821
4290,4.187,0.000,0.194,0.000,0.816,0.001,0.000,34.850
4301,4.187,0.000,0.194,0.000,0.816,0.001,0.000,34.826
4312,4.187,0.000,0.194,0.000,0.816,0.001,0.000,34.867
4323,4.187,0.000,0.194,0.000,0.816,0.001,0.000,34.833
4334,4.187,0.000,0.194,0.000,0.816,0.001,0.000,34.809
4345,4.187,0.000,0.194,0.000,0.816,0.001,0.000,34.850
4356,4.187,0.000,0.194,0.000,0.816,0.001,0.000,34.838
4367,4.187,0.000,0.194,0.000,0.816,0.001,0.000,34.828
4378,4.187,0.000,0.194,0.000,0.816,0.001,0.000,34.793
4389,4.187,0.000,0.194,0.000,0.816,0.001,0.000,34.814
4400,4.187,0.000,0.194,0.000,0.816,0.001,0.000,34.838
4411,4.187,0.000,0.194,0.000,0.816,0.001,0.000,34.795
4422,4.187,0.000,0.194,0.000,0.816,0.001,0.000,34.792
4433,4.187,0.000,0.194,0.000,0.816,0.001,0.000,34.797
4444,4.187,0.000,0.194,0.000,0.816,0.001,0.000,34.872
4455,4.187,0.000,0.194,0.000,0.816,0.001,0.000,34.843
4466,4.187,0.000,0.194,0.000,0.816,0.001,0.000,34.849
4477,4.187,0.000,0.194,0.000,0.816,0.001,0.000,34.841
4488,4.187,0.000,0.194,0.000,0.816,0.001,0.000,34.849
4499,4.187,0.000,0.194,0.000,0.816,0.001,0.000,34.852
4510,4.187,0.000,0.194,0.000,0.816,0.001,0.000,34.831
4521,4.187,0.000,0.194,0.000,0.816,0.001,0.000,34.869
4532,4.187,0.000,0.194,0.000,0.816,0.001,0.000,34.853
4543,4.187,0.000,0.194,0.000,0.816,0.001,0.000,34.842
4554,4.187,0.000,0.194,0.000,0.816,0.001,0.000,34.817
4565,4.187,0.000,0.194,0.000,0.816,0.001,0.000,34.798
4576,4.187,0.000,0.194,0.000,0.816,0.001,0.000,34.830
4587,4.187,0.000,0.194,0.000,0.816,0.001,0.000,34.776
4598,4.187,0.000,0.194,0.000,0.816,0.001,0.000,34.793
4609,4.187,0.000,0.194,0.000,0.816,0.001,0.000,34.824
4620,4.187,0.000,0.194,0.000,0.816,0.001,0.000,34.801
4631,4.187,0.000,0.194,0.000,0.816,0.001,0.000,34.815
4642,4.187,0.000,0.194,0.000,0.816,0.001,0.000,34.817
4653,4.187,0.000,0.194,0.000,0.816,0.001,0.000,34.867
4664,4.187,0.000,0.194,0.000,0.816,0.001,0.000,34.839
4675,4.187,0.000,0.194,0.000,0.816,0.001,0.000,34.842
4686,4.187,0.000,0.194,0.000,0.816,0.001,0.000,34.824
4697,4.187,0.000,0.194,0.000,0.816,0.001,0.000,34.840
4708,4.187,0.000,0.194,0.000,0.816,0.001,0.000,34.805
4719,4.187,0.000,0.194,0.000,0.816,0.001,0.000,34.826
4730,4.187,0.000,0.194,0.000,0.816,0.001,0.000,34.804
4741,4.186,0.000,0.194,0.000,0.816,0.001,0.000,34.786
4752,4.187,0.000,0.194,0.000,0.816,0.001,0.000,34.849
4763,4.187,0.000,0.194,0.000,0.816,0.001,0.000,34.801
4774,4.186,0.000,0.194,0.000,0.816,0.001,0.000,34.796
4785,4.187,0.000,0.194,0.000,0.816,0.001,0.000,34.816
4796,4.186,0.000,0.194,0.000,0.816,0.001,0.000,34.834
4807,4.186,0.000,0.194,0.000,0.816,0.001,0.000,34.824
4818,4.187,0.000,0.194,0.000,0.816,0.001,0.000,34.807
4829,4.187,0.000,0.194,0.000,0.816,0.001,0.000,34.803
4840,4.186,0.000,0.194,0.000,0.816,0.001,0.000,34.836
4851,4.186,0.000,0.194,0.000,0.816,0.001,0.000,34.807
4862,4.186,0.000,0.194,0.000,0.816,0.001,0.000,34.828
4873,4.186,0.000,0.194,0.000,0.816,0.001,0.000,34.833
4884,4.186,0.000,0.194,0.000,0.816,0.001,0.000,34.828
4895,4.186,0.000,0.194,0.000,0.816,0.001,0.000,34.866
4906,4.186,0.000,0.194,0.000,0.816,0.001,0.000,34.819
4917,4.186,0.000,0.194,0.000,0.816,0.001,0.000,34.819
4928,4.186,0.000,0.194,0.000,0.816,0.001,0.000,34.782
4939,4.186,0.000,0.194,0.000,0.816,0.001,0.000,34.830
4950,4.186,0.000,0.194,0.000,0.816,0.001,0.000,34.789
4961,4.186,0.000,0.194,0.000,0.816,0.001,0.000,34.857
4972,4.186,0.000,0.194,0.000,0.816,0.001,0.000,34.828
4983,4.186,0.000,0.194,0.000,0.816,0.001,0.000,34.852
4994,4.186,0.000,0.194,0.000,0.816,0.001,0.000,34.808
5005,4.186,0.000,0.194,0.000,0.816,0.001,0.000,34.834
5016,4.186,0.000,0.194,0.000,0.816,0.001,0.000,34.835
5027,4.186,0.000,0.194,0.000,0.816,0.001,0.000,34.835
5038,4.186,0.000,0.194,0.000,0.816,0.001,0.000,34.801
5049,4.186,0.000,0.194,0.000,0.816,0.001,0.000,34.832
5060,4.186,0.000,0.194,0.000,0.816,0.001,0.000,34.817
5071,4.186,0.000,0.194,0.000,0.816,0.001,0.000,34.808
5082,4.186,0.000,0.194,0.000,0.816,0.001,0.000,34.796
5093,4.186,0.000,0.194,0.000,0.816,0.001,0.000,34.820
5104,4.186,0.000,0.194,0.000,0.816,0.001,0.000,34.793
5115,4.186,0.000,0.194,0.000,0.816,0.001,0.000,34.788
5126,4.186,0.000,0.194,0.000,0.816,0.001,0.000,34.780
5137,4.186,0.000,0.194,0.000,0.816,0.001,0.000,34.819
5148,4.186,0.000,0.194,0.000,0.816,0.001,0.000,34.817
5159,4.186,0.000,0.194,0.000,0.816,0.001,0.000,34.791
5170,4.186,0.000,0.194,0.000,0.816,0.001,0.000,34.781
5181,4.186,0.000,0.194,0.000,0.816,0.001,0.000,34.830
5192,4.186,0.000,0.194,0.000,0.816,0.001,0.000,34.757
5203,4.186,0.000,0.194,0.000,0.816,0.001,0.000,34.785
5214,4.186,0.000,0.194,0.000,0.816,0.001,0.000,34.795
5225,4.186,0.000,0.194,0.000,0.816,0.001,0.000,34.807
5236,4.186,0.000,0.194,0.000,0.816,0.001,0.000,34.753
5247,4.186,0.000,0.194,0.000,0.816,0.001,0.000,34.774
5257,3.554,-10.052,0.194,0.025,0.816,0.091,-0.005,34.953
5268,3.516,-10.051,0.194,0.056,0.816,0.199,-0.003,35.438
5279,3.493,-10.051,0.194,0.087,0.816,0.307,-0.002,36.111
5290,3.476,-10.050,0.194,0.117,0.816,0.414,-0.001,36.803
5301,3.461,-10.050,0.194,0.148,0.816,0.520,-0.001,37.477
5312,3.448,-10.050,0.194,0.179,0.816,0.627,-0.001,38.103
5323,3.436,-10.050,0.194,0.210,0.816,0.732,-0.001,38.849
5334,3.423,-10.049,0.194,0.240,0.816,0.838,-0.001,39.436
5345,3.411,-10.049,0.194,0.271,0.816,0.942,-0.001,39.915
5356,3.399,-10.049,0.194,0.302,0.816,1.047,-0.001,40.522
5367,3.387,-10.049,0.194,0.332,0.816,1.151,-0.001,41.107
5378,3.375,-10.048,0.194,0.363,0.816,1.255,-0.001,41.612
5389,3.363,-10.049,0.194,0.394,0.816,1.358,-0.001,42.081
5400,3.350,-10.049,0.194,0.425,0.816,1.462,-0.001,42.642
5411,3.338,-10.049,0.194,0.455,0.816,1.564,-0.001,43.150
5422,3.326,-10.048,0.194,0.486,0.816,1.667,-0.001,43.609
5433,3.314,-10.048,0.194,0.517,0.816,1.768,-0.001,43.960
5444,3.301,-10.048,0.194,0.547,0.816,1.870,-0.001,44.392
5455,3.289,-10.048,0.194,0.578,0.816,1.971,-0.001,44.679
5466,3.276,-10.048,0.194,0.609,0.816,2.072,-0.001,45.133
5477,3.264,-10.048,0.194,0.639,0.816,2.172,-0.001,45.576
5488,3.252,-10.048,0.194,0.670,0.816,2.272,-0.001,45.860
5499,3.239,-10.048,0.194,0.701,0.816,2.372,-0.001,46.271
5510,3.227,-10.048,0.194,0.732,0.816,2.471,-0.001,46.614
5521,3.215,-10.047,0.194,0.762,0.816,2.570,-0.001,46.802
5532,3.202,-10.047,0.194,0.793,0.816,2.669,-0.001,47.163
5543,3.190,-10.048,0.194,0.824,0.816,2.767,-0.001,47.523
5554,3.178,-10.047,0.194,0.854,0.816,2.865,-0.001,47.980
5565,3.166,-10.047,0.194,0.885,0.816,2.962,-0.001,48.125
5576,3.154,-10.047,0.194,0.916,0.816,3.059,-0.001,48.407
5587,3.142,-10.048,0.194,0.946,0.816,3.156,-0.001,48.726
5598,3.130,-10.048,0.194,0.977,0.816,3.252,-0.001,48.942
5609,3.118,-10.048,0.194,1.008,0.816,3.348,-0.001,49.341
5620,3.107,-10.048,0.194,1.039,0.816,3.443,-0.001,49.620
5631,3.096,-10.047,0.194,1.069,0.816,3.538,-0.001,49.908
5642,3.084,-10.048,0.194,1.100,0.816,3.633,-0.001,50.180
5653,3.074,-10.047,0.194,1.131,0.816,3.728,-0.001,50.396
5664,3.063,-10.047,0.194,1.161,0.816,3.822,-0.001,50.692
5675,3.053,-10.047,0.194,1.192,0.816,3.916,-0.001,50.881
5686,3.042,-10.047,0.194,1.223,0.816,4.009,-0.001,51.107
5697,3.032,-10.047,0.194,1.253,0.816,4.103,-0.001,51.455
5708,3.022,-10.047,0.194,1.284,0.816,4.196,-0.001,51.644
5719,3.013,-10.048,0.194,1.315,0.816,4.288,-0.001,51.849
5730,3.003,-10.048,0.194,1.346,0.816,4.381,-0.001,52.055
5741,2.993,-10.047,0.194,1.376,0.816,4.473,-0.001,52.278
5752,2.984,-10.047,0.194,1.407,0.816,4.564,-0.001,52.445
5763,2.975,-10.047,0.194,1.438,0.816,4.656,-0.001,52.947
5774,2.965,-10.047,0.194,1.468,0.816,4.747,-0.001,53.026
5785,2.956,-10.047,0.194,1.499,0.816,4.838,-0.001,53.231
5796,2.947,-10.047,0.194,1.530,0.816,4.929,-0.001,53.468
5807,2.937,-10.047,0.194,1.560,0.816,5.019,-0.001,53.647
5818,2.928,-10.047,0.194,1.591,0.816,5.109,-0.001,53.925
5829,2.919,-10.047,0.194,1.622,0.816,5.199,-0.001,53.969
5840,2.910,-10.047,0.194,1.653,0.816,5.288,-0.001,54.280
5851,2.900,-10.047,0.194,1.683,0.816,5.377,-0.001,54.409
5862,2.891,-10.047,0.194,1.714,0.816,5.466,-0.001,54.606
5873,2.882,-10.047,0.194,1.745,0.816,5.555,-0.001,54.906
5884,2.872,-10.047,0.194,1.775,0.816,5.643,-0.001,54.943
5895,2.863,-10.047,0.194,1.806,0.816,5.731,-0.001,55.214
5906,2.854,-10.046,0.194,1.837,0.816,5.819,-0.001,55.574
5917,2.844,-10.046,0.194,1.867,0.816,5.906,-0.001,55.663
5928,2.834,-10.046,0.194,1.898,0.816,5.994,-0.001,56.032
5939,2.825,-10.047,0.194,1.929,0.816,6.080,-0.001,56.222
5950,2.815,-10.047,0.194,1.960,0.816,6.167,-0.001,56.391
5961,2.805,-10.046,0.194,1.990,0.816,6.253,-0.001,56.599
5972,2.795,-10.047,0.194,2.021,0.816,6.339,-0.001,56.644
5983,2.785,-10.046,0.194,2.052,0.816,6.425,-0.001,57.000
5994,2.775,-10.047,0.194,2.082,0.816,6.510,-0.001,57.124
6005,2.765,-10.048,0.194,2.113,0.816,6.595,-0.001,57.155
6016,2.755,-10.047,0.194,2.144,0.816,6.680,-0.001,57.420
6027,2.745,-10.047,0.194,2.174,0.816,6.764,-0.001,57.443
6038,2.735,-10.047,0.194,2.205,0.816,6.848,-0.001,57.819
6049,2.725,-10.047,0.194,2.236,0.816,6.932,-0.001,57.892
6060,2.715,-10.047,0.194,2.267,0.816,7.016,-0.001,58.007
6071,2.704,-10.047,0.194,2.297,0.816,7.099,-0.001,58.255
6082,2.694,-10.047,0.194,2.328,0.816,7.182,-0.001,58.547
6093,2.684,-10.047,0.194,2.359,0.816,7.264,-0.001,58.658
6104,2.674,-10.047,0.194,2.389,0.816,7.347,-0.001,58.828
6115,2.663,-10.047,0.194,2.420,0.816,7.429,-0.001,59.139
6126,2.653,-10.047,0.194,2.451,0.816,7.510,-0.001,59.142
6137,2.642,-10.046,0.194,2.481,0.816,7.591,-0.001,59.365
6148,2.632,-10.047,0.194,2.512,0.816,7.672,-0.001,59.518
6159,2.621,-10.047,0.194,2.543,0.816,7.753,-0.001,59.769
6170,2.610,-10.047,0.194,2.573,0.816,7.833,-0.001,60.078
6181,2.599,-10.047,0.194,2.604,0.816,7.913,-0.001,60.201
6192,2.588,-10.047,0.194,2.635,0.816,7.993,-0.001,60.474
6203,2.577,-10.048,0.194,2.666,0.816,8.072,-0.001,60.894
6214,2.566,-10.047,0.194,2.696,0.816,8.151,-0.001,61.159
6225,2.554,-10.047,0.194,2.727,0.816,8.230,-0.001,61.190
6236,2.542,-10.047,0.194,2.758,0.816,8.308,-0.001,61.403
6247,2.529,-10.047,0.194,2.788,0.816,8.386,-0.001,61.741
6258,2.516,-10.047,0.194,2.819,0.816,8.463,-0.001,61.895
6269,2.502,-10.047,0.194,2.850,0.816,8.540,-0.001,62.098
6279,3.270,0.000,0.194,2.854,0.816,8.550,0.008,61.928
6290,3.325,0.000,0.194,2.854,0.816,8.550,0.004,61.937
6301,3.352,0.000,0.194,2.854,0.816,8.550,0.002,61.533
6312,3.365,0.000,0.194,2.854,0.816,8.550,0.001,60.718
6323,3.371,0.000,0.194,2.854,0.816,8.550,0.000,59.905
6334,3.373,0.000,0.194,2.854,0.816,8.550,0.000,59.130
6345,3.375,0.000,0.194,2.854,0.816,8.550,0.000,58.389
6356,3.375,0.000,0.194,2.854,0.816,8.550,0.000,57.597
6367,3.376,0.000,0.194,2.854,0.816,8.550,0.000,57.036
6378,3.376,0.000,0.194,2.854,0.816,8.550,0.000,56.276
6389,3.376,0.000,0.194,2.854,0.816,8.550,0.000,55.528
6400,3.377,0.000,0.194,2.854,0.816,8.550,0.000,54.714
6411,3.377,0.000,0.194,2.854,0.816,8.550,0.000,53.826
6422,3.377,0.000,0.194,2.854,0.816,8.550,0.000,53.147
6433,3.377,0.000,0.194,2.854,0.816,8.550,0.000,52.653
6444,3.377,0.000,0.194,2.854,0.816,8.550,0.000,52.025
6455,3.378,0.000,0.194,2.854,0.816,8.550,0.000,51.580
6466,3.378,0.000,0.194,2.854,0.816,8.550,0.000,51.024
6477,3.378,0.000,0.194,2.854,0.816,8.550,0.000,50.504
6488,3.379,0.000,0.194,2.854,0.816,8.550,0.000,49.933
6499,3.379,0.000,0.194,2.854,0.816,8.550,0.000,49.124
6510,3.379,0.000,0.194,2.854,0.816,8.550,0.000,48.681
6521,3.380,0.000,0.194,2.854,0.816,8.550,0.000,48.238
6532,3.380,0.000,0.194,2.854,0.816,8.550,0.000,47.869
6543,3.381,0.000,0.194,2.854,0.816,8.550,0.000,47.446
6554,3.381,0.000,0.194,2.854,0.816,8.550,0.000,47.057
6565,3.382,0.000,0.194,2.854,0.816,8.550,0.000,46.707
6576,3.382,0.000,0.194,2.854,0.816,8.550,0.000,46.213
6587,3.383,0.000,0.194,2.854,0.816,8.550,0.000,45.907
6598,3.383,0.000,0.194,2.854,0.816,8.550,0.000,45.476
6609,3.384,0.000,0.194,2.854,0.816,8.550,0.000,45.108
6620,3.384,0.000,0.194,2.854,0.816,8.550,0.000,44.749
6631,3.385,0.000,0.194,2.854,0.816,8.550,0.000,44.549
6642,3.385,0.000,0.194,2.854,0.816,8.550,0.000,44.078
6653,3.386,0.000,0.194,2.854,0.816,8.550,0.000,43.828
6664,3.386,0.000,0.194,2.854,0.816,8.550,0.000,43.569
6675,3.386,0.000,0.194,2.854,0.816,8.550,0.000,43.184
6686,3.387,0.000,0.194,2.854,0.816,8.550,0.000,42.924
6697,3.387,0.000,0.194,2.854,0.816,8.550,0.000,42.631
6708,3.388,0.000,0.194,2.854,0.816,8.550,0.000,42.454
6719,3.388,0.000,0.194,2.854,0.816,8.550,0.000,42.184
6730,3.388,0.000,0.194,2.854,0.816,8.550,0.000,41.970
6741,3.389,0.000,0.194,2.854,0.816,8.550,0.000,41.741
6752,3.389,0.000,0.194,2.854,0.816,8.550,0.000,41.446
6763,3.389,0.000,0.194,2.854,0.816,8.550,0.000,41.260
6774,3.389,0.000,0.194,2.854,0.816,8.550,0.000,41.044
6785,3.390,0.000,0.194,2.854,0.816,8.550,0.000,40.907
6796,3.390,0.000,0.194,2.854,0.816,8.550,0.000,40.680
6807,3.390,0.000,0.194,2.854,0.816,8.550,0.000,40.506
6818,3.390,0.000,0.194,2.854,0.816,8.550,0.000,40.373
6829,3.391,0.000,0.194,2.854,0.816,8.550,0.000,40.117
6840,3.391,0.000,0.194,2.854,0.816,8.550,0.000,39.926
6851,3.391,0.000,0.194,2.854,0.816,8.550,0.000,39.728
6862,3.391,0.000,0.194,2.854,0.816,8.550,0.000,39.595
6873,3.391,0.000,0.194,2.854,0.816,8.550,0.000,39.389
6884,3.391,0.000,0.194,2.854,0.816,8.550,0.000,39.235
6895,3.391,0.000,0.194,2.854,0.816,8.550,0.000,39.155
6906,3.391,0.000,0.194,2.854,0.816,8.550,0.000,38.946
6917,3.392,0.000,0.194,2.854,0.816,8.550,0.000,38.878
6928,3.392,0.000,0.194,2.854,0.816,8.550,0.000,38.728
6939,3.392,0.000,0.194,2.854,0.816,8.550,0.000,38.571
6950,3.392,0.000,0.194,2.854,0.816,8.550,0.000,38.477
6961,3.392,0.000,0.194,2.854,0.816,8.550,0.000,38.332
6972,3.392,0.000,0.194,2.854,0.816,8.550,0.000,38.254
6983,3.392,0.000,0.194,2.854,0.816,8.550,0.000,38.158
6994,3.392,0.000,0.194,2.854,0.816,8.550,0.000,38.050
7005,3.392,0.000,0.194,2.854,0.816,8.550,0.000,37.988
7016,3.393,0.000,0.194,2.854,0.816,8.550,0.000,37.866
7027,3.393,0.000,0.194,2.854,0.816,8.550,0.000,37.721
7038,3.393,0.000,0.194,2.854,0.816,8.550,0.000,37.635
7049,3.393,0.000,0.194,2.854,0.816,8.550,0.000,37.603
7060,3.393,0.000,0.194,2.854,0.816,8.550,0.000,37.502
7071,3.393,0.000,0.194,2.854,0.816,8.550,0.000,37.382
7082,3.393,0.000,0.194,2.854,0.816,8.550,0.000,37.340
7093,3.393,0.000,0.194,2.854,0.816,8.550,0.000,37.269
7104,3.393,0.000,0.194,2.854,0.816,8.550,0.000,37.175
7115,3.393,0.000,0.194,2.854,0.816,8.550,0.000,37.116
7126,3.393,0.000,0.194,2.854,0.816,8.550,0.000,37.012
7137,3.393,0.000,0.194,2.854,0.816,8.550,0.000,36.940
7148,3.393,0.000,0.194,2.854,0.816,8.550,0.000,36.931
7159,3.393,0.000,0.194,2.854,0.816,8.550,0.000,36.864
7170,3.393,0.000,0.194,2.854,0.816,8.550,0.000,36.807
7181,3.393,0.000,0.194,2.854,0.816,8.550,0.000,36.713
7192,3.393,0.000,0.194,2.854,0.816,8.550,0.000,36.683
7203,3.393,0.000,0.194,2.854,0.816,8.550,0.000,36.549
7214,3.393,0.000,0.194,2.854,0.816,8.550,0.000,36.545
7225,3.393,0.000,0.194,2.854,0.816,8.550,0.000,36.501
7236,3.393,0.000,0.194,2.854,0.816,8.550,0.000,36.467
7247,3.393,0.000,0.194,2.854,0.816,8.550,0.000,36.406
7258,3.394,0.000,0.194,2.854,0.816,8.550,0.000,36.367
7269,3.394,0.000,0.194,2.854,0.816,8.550,0.000,36.305
7280,3.393,0.000,0.194,2.854,0.816,8.550,0.000,36.235
7291,3.394,0.000,0.194,2.854,0.816,8.550,0.000,36.224
7302,3.393,0.000,0.194,2.854,0.816,8.550,0.000,36.181
7313,3.394,0.000,0.194,2.854,0.816,8.550,0.000,36.120
7324,3.394,0.000,0.194,2.854,0.816,8.550,0.000,36.091
7335,3.393,0.000,0.194,2.854,0.816,8.550,0.000,36.114
7346,3.394,0.000,0.194,2.854,0.816,8.550,0.000,36.003
7357,3.394,0.000,0.194,2.854,0.816,8.550,0.000,35.991
7368,3.394,0.000,0.194,2.854,0.816,8.550,0.000,35.941
7379,3.394,0.000,0.194,2.854,0.816,8.550,0.000,35.949
7390,3.393,0.000,0.194,2.854,0.816,8.550,0.000,35.890
7401,3.394,0.000,0.194,2.854,0.816,8.550,0.000,35.856
7412,3.394,0.000,0.194,2.854,0.816,8.550,0.000,35.829
7423,3.394,0.000,0.194,2.854,0.816,8.550,0.000,35.800
7434,3.394,0.000,0.194,2.854,0.816,8.550,0.000,35.804
7445,3.394,0.000,0.194,2.854,0.816,8.550,0.000,35.765
7456,3.394,0.000,0.194,2.854,0.816,8.550,0.000,35.739
7467,3.394,0.000,0.194,2.854,0.816,8.550,0.000,35.694
7478,3.394,0.000,0.194,2.854,0.816,8.550,0.000,35.714
7489,3.394,0.000,0.194,2.854,0.816,8.550,0.000,35.618
7500,3.394,0.000,0.194,2.854,0.816,8.550,0.000,35.612
7511,3.394,0.000,0.194,2.854,0.816,8.550,0.000,35.588
7522,3.394,0.000,0.194,2.854,0.816,8.550,0.000,35.569
7533,3.394,0.000,0.194,2.854,0.816,8.550,0.000,35.527
7544,3.394,0.000,0.194,2.854,0.816,8.550,0.000,35.503
7555,3.394,0.000,0.194,2.854,0.816,8.550,0.000,35.511
7566,3.394,0.000,0.194,2.854,0.816,8.550,0.000,35.474
7577,3.394,0.000,0.194,2.854,0.816,8.550,0.000,35.431
7588,3.394,0.000,0.194,2.854,0.816,8.550,0.000,35.444
7599,3.394,0.000,0.194,2.854,0.816,8.550,0.000,35.435
7610,3.394,0.000,0.194,2.854,0.816,8.550,0.000,35.374
7621,3.394,0.000,0.194,2.854,0.816,8.550,0.000,35.424
7632,3.394,0.000,0.194,2.854,0.816,8.550,0.000,35.394
7643,3.394,0.000,0.194,2.854,0.816,8.550,0.000,35.388
7654,3.394,0.000,0.194,2.854,0.816,8.550,0.000,35.362
7665,3.394,0.000,0.194,2.854,0.816,8.550,0.000,35.337
7676,3.394,0.000,0.194,2.854,0.816,8.550,0.000,35.363
7687,3.394,0.000,0.194,2.854,0.816,8.550,0.000,35.313
7698,3.394,0.000,0.194,2.854,0.816,8.550,0.000,35.300
7709,3.394,0.000,0.194,2.854,0.816,8.550,0.000,35.284
7720,3.394,0.000,0.194,2.854,0.816,8.550,0.000,35.243
7731,3.394,0.000,0.194,2.854,0.816,8.550,0.000,35.232
7742,3.394,0.000,0.194,2.854,0.816,8.550,0.000,35.231
7753,3.394,0.000,0.194,2.854,0.816,8.550,0.000,35.236
7764,3.394,0.000,0.194,2.854,0.816,8.550,0.000,35.208
7775,3.394,0.000,0.194,2.854,0.816,8.550,0.000,35.180
7786,3.394,0.000,0.194,2.854,0.816,8.550,0.000,35.181
7797,3.394,0.000,0.194,2.854,0.816,8.550,0.000,35.153
7808,3.394,0.000,0.194,2.854,0.816,8.550,0.000,35.156
7819,3.394,0.000,0.194,2.854,0.816,8.550,0.000,35.181
7830,3.394,0.000,0.194,2.854,0.816,8.550,0.000,35.174
7841,3.394,0.000,0.194,2.854,0.816,8.550,0.000,35.133
7852,3.394,0.000,0.194,2.854,0.816,8.550,0.000,35.158
7863,3.394,0.000,0.194,2.854,0.816,8.550,0.000,35.162
7874,3.394,0.000,0.194,2.854,0.816,8.550,0.000,35.134
7885,3.394,0.000,0.194,2.854,0.816,8.550,0.000,35.125
7896,3.394,0.000,0.194,2.854,0.816,8.550,0.000,35.095
7907,3.394,0.000,0.194,2.854,0.816,8.550,0.000,35.082
7918,3.394,0.000,0.194,2.854,0.816,8.550,0.000,35.067
7929,3.394,0.000,0.194,2.854,0.816,8.550,0.000,35.081
7940,3.394,0.000,0.194,2.854,0.816,8.550,0.000,35.042
7951,3.394,0.000,0.194,2.854,0.816,8.550,0.000,35.064
7962,3.394,0.000,0.194,2.854,0.816,8.550,0.000,35.081
7973,3.394,0.000,0.194,2.854,0.816,8.550,0.000,35.044
7984,3.394,0.000,0.194,2.854,0.816,8.550,0.000,35.044
7995,3.394,0.000,0.194,2.854,0.816,8.550,0.000,35.030
8006,3.394,0.000,0.194,2.854,0.816,8.550,0.000,35.022
8017,3.394,0.000,0.194,2.854,0.816,8.550,0.000,35.008
8028,3.394,0.000,0.194,2.854,0.816,8.550,0.000,35.013
8039,3.394,0.000,0.194,2.854,0.816,8.550,0.000,34.996
8050,3.394,0.000,0.194,2.854,0.816,8.550,0.000,34.982
8061,3.394,0.000,0.194,2.854,0.816,8.550,0.000,34.980
8072,3.394,0.000,0.194,2.854,0.816,8.550,0.000,34.986
8083,3.394,0.000,0.194,2.854,0.816,8.550,0.000,35.013
8094,3.394,0.000,0.194,2.854,0.816,8.550,0.000,35.024
8105,3.394,0.000,0.194,2.854,0.816,8.550,0.000,34.988
8116,3.394,0.000,0.194,2.854,0.816,8.550,0.000,34.998
8127,3.394,0.000,0.194,2.854,0.816,8.550,0.000,35.003
8138,3.394,0.000,0.194,2.854,0.816,8.550,0.000,34.967
8149,3.394,0.000,0.194,2.854,0.816,8.550,0.000,34.996
8160,3.394,0.000,0.194,2.854,0.816,8.550,0.000,34.937
8171,3.394,0.000,0.194,2.854,0.816,8.550,0.000,34.955
8182,3.394,0.000,0.194,2.854,0.816,8.550,0.000,34.960
8193,3.394,0.000,0.194,2.854,0.816,8.550,0.000,34.954
8204,3.394,0.000,0.194,2.854,0.816,8.550,0.000,34.964
8215,3.394,0.000,0.194,2.854,0.816,8.550,0.000,34.954
8226,3.394,0.000,0.194,2.854,0.816,8.550,0.000,34.968
8237,3.394,0.000,0.194,2.854,0.816,8.550,0.000,34.903
8248,3.394,0.000,0.194,2.854,0.816,8.550,0.000,34.924
8259,3.394,0.000,0.194,2.854,0.816,8.550,0.000,34.966
8270,3.394,0.000,0.194,2.854,0.816,8.550,0.000,34.926
8281,3.394,0.000,0.194,2.854,0.816,8.550,0.000,34.897
8292,3.394,0.000,0.194,2.854,0.816,8.550,0.000,34.914
8303,3.394,0.000,0.194,2.854,0.816,8.550,0.000,34.938
8314,3.394,0.000,0.194,2.854,0.816,8.550,0.000,34.940
8325,3.394,0.000,0.194,2.854,0.816,8.550,0.000,34.907
8336,3.394,0.000,0.194,2.854,0.816,8.550,0.000,34.930
8347,3.394,0.000,0.194,2.854,0.816,8.550,0.000,34.920
8358,3.394,0.000,0.194,2.854,0.816,8.550,0.000,34.903
8369,3.393,0.000,0.194,2.854,0.816,8.550,0.000,34.910
8380,3.394,0.000,0.194,2.854,0.816,8.550,0.000,34.903
8391,3.394,0.000,0.194,2.854,0.816,8.550,0.000,34.883
8402,3.394,0.000,0.194,2.854,0.816,8.550,0.000,34.879
8413,3.394,0.000,0.194,2.854,0.816,8.550,0.000,34.884
8424,3.394,0.000,0.194,2.854,0.816,8.550,0.000,34.849
8435,3.394,0.000,0.194,2.854,0.816,8.550,0.000,34.880
8446,3.394,0.000,0.194,2.854,0.816,8.550,0.000,34.867
8457,3.394,0.000,0.194,2.854,0.816,8.550,0.000,34.907
8468,3.394,0.000,0.194,2.854,0.816,8.550,0.000,34.881
8479,3.394,0.000,0.194,2.854,0.816,8.550,0.000,34.847
8490,3.394,0.000,0.194,2.854,0.816,8.550,0.000,34.861
8501,3.394,0.000,0.194,2.854,0.816,8.550,0.000,34.904
8512,3.394,0.000,0.194,2.854,0.816,8.550,0.000,34.849
8523,3.394,0.000,0.194,2.854,0.816,8.550,0.000,34.868
8534,3.394,0.000,0.194,2.854,0.816,8.550,0.000,34.840
8545,3.394,0.000,0.194,2.854,0.816,8.550,0.000,34.830
8556,3.394,0.000,0.194,2.854,0.816,8.550,0.000,34.873
8567,3.394,0.000,0.194,2.854,0.816,8.550,0.000,34.866
8578,3.394,0.000,0.194,2.854,0.816,8.550,0.000,34.880
8589,3.394,0.000,0.194,2.854,0.816,8.550,0.000,34.841
8600,3.394,0.000,0.194,2.854,0.816,8.550,0.000,34.872
8611,3.394,0.000,0.194,2.854,0.816,8.550,0.000,34.876
8622,3.394,0.000,0.194,2.854,0.816,8.550,0.000,34.859
8633,3.394,0.000,0.194,2.854,0.816,8.550,0.000,34.873
8644,3.394,0.000,0.194,2.854,0.816,8.550,0.000,34.865
8655,3.394,0.000,0.194,2.854,0.816,8.550,0.000,34.849
8666,3.394,0.000,0.194,2.854,0.816,8.550,0.000,34.867
8677,3.394,0.000,0.194,2.854,0.816,8.550,0.000,34.845
8688,3.394,0.000,0.194,2.854,0.816,8.550,0.000,34.854
8699,3.394,0.000,0.194,2.854,0.816,8.550,0.000,34.880
8710,3.394,0.000,0.194,2.854,0.816,8.550,0.000,34.888
8721,3.394,0.000,0.194,2.854,0.816,8.550,0.000,34.846
8732,3.394,0.000,0.194,2.854,0.816,8.550,0.000,34.869
8743,3.394,0.000,0.194,2.854,0.816,8.550,0.000,34.891
8754,3.394,0.000,0.194,2.854,0.816,8.550,0.000,34.866
8765,3.394,0.000,0.194,2.854,0.816,8.550,0.000,34.869
8776,3.394,0.000,0.194,2.854,0.816,8.550,0.000,34.871
8787,3.394,0.000,0.194,2.854,0.816,8.550,0.000,34.859
8798,3.394,0.000,0.194,2.854,0.816,8.550,0.000,34.856
8809,3.394,0.000,0.194,2.854,0.816,8.550,0.000,34.855
8820,3.394,0.000,0.194,2.854,0.816,8.550,0.000,34.838
8831,3.394,0.000,0.194,2.854,0.816,8.550,0.000,34.846
8842,3.394,0.000,0.194,2.854,0.816,8.550,0.000,34.816
8853,3.394,0.000,0.194,2.854,0.816,8.550,0.000,34.864
8864,3.394,0.000,0.194,2.854,0.816,8.550,0.000,34.895
8875,3.394,0.000,0.194,2.854,0.816,8.550,0.000,34.845
8886,3.394,0.000,0.194,2.854,0.816,8.550,0.000,34.858
8897,3.394,0.000,0.194,2.854,0.816,8.550,0.000,34.881
8908,3.394,0.000,0.194,2.854,0.816,8.550,0.000,34.875
8919,3.394,0.000,0.194,2.854,0.816,8.550,0.000,34.853
8930,3.394,0.000,0.194,2.854,0.816,8.550,0.000,34.833
8941,3.394,0.000,0.194,2.854,0.816,8.550,0.000,34.825
8952,3.394,0.000,0.194,2.854,0.816,8.550,0.000,34.849
8963,3.394,0.000,0.194,2.854,0.816,8.550,0.000,34.834
8974,3.394,0.000,0.194,2.854,0.816,8.550,0.000,34.808
8985,3.394,0.000,0.194,2.854,0.816,8.550,0.000,34.848
8996,3.394,0.000,0.194,2.854,0.816,8.550,0.000,34.844
9007,3.394,0.000,0.194,2.854,0.816,8.550,0.000,34.841
9018,3.394,0.000,0.194,2.854,0.816,8.550,0.000,34.822
9029,3.394,0.000,0.194,2.854,0.816,8.550,0.000,34.835
9040,3.394,0.000,0.194,2.854,0.816,8.550,0.000,34.812
9051,3.394,0.000,0.194,2.854,0.816,8.550,0.000,34.835
9062,3.394,0.000,0.194,2.854,0.816,8.550,0.000,34.824
9073,3.394,0.000,0.194,2.854,0.816,8.550,0.000,34.792
9084,3.394,0.000,0.194,2.854,0.816,8.550,0.000,34.813
9095,3.394,0.000,0.194,2.854,0.816,8.550,0.000,34.841
9106,3.394,0.000,0.194,2.854,0.816,8.550,0.000,34.831
9117,3.394,0.000,0.194,2.854,0.816,8.550,0.000,34.806
9128,3.394,0.000,0.194,2.854,0.816,8.550,0.000,34.800
9139,3.394,0.000,0.194,2.854,0.816,8.550,0.000,34.831
9150,3.394,0.000,0.194,2.854,0.816,8.550,0.000,34.804
9161,3.394,0.000,0.194,2.854,0.816,8.550,0.000,34.803
9172,3.394,0.000,0.194,2.854,0.816,8.550,0.000,34.791
9183,3.394,0.000,0.194,2.854,0.816,8.550,0.000,34.827
9194,3.394,0.000,0.194,2.854,0.816,8.550,0.000,34.810
9205,3.394,0.000,0.194,2.854,0.816,8.550,0.000,34.812
9216,3.394,0.000,0.194,2.854,0.816,8.550,0.000,34.815
9227,3.394,0.000,0.194,2.854,0.816,8.550,0.000,34.815
9238,3.394,0.000,0.194,2.854,0.816,8.550,0.000,34.802
9249,3.394,0.000,0.194,2.854,0.816,8.550,0.000,34.822
9260,3.394,0.000,0.194,2.854,0.816,8.550,0.000,34.824
9271,3.394,0.000,0.194,2.854,0.816,8.550,0.000,34.828
9282,3.394,0.000,0.194,2.854,0.816,8.550,0.000,34.838
9293,3.394,0.000,0.194,2.854,0.816,8.550,0.000,34.842
9304,3.394,0.000,0.194,2.854,0.816,8.550,0.000,34.834
9315,3.394,0.000,0.194,2.854,0.816,8.550,0.000,34.794
9326,3.394,0.000,0.194,2.854,0.816,8.550,0.000,34.804
9337,3.394,0.000,0.194,2.854,0.816,8.550,0.000,34.829
9348,3.394,0.000,0.194,2.854,0.816,8.550,0.000,34.817
9359,3.394,0.000,0.194,2.854,0.816,8.550,0.000,34.838
9370,3.394,0.000,0.194,2.854,0.816,8.550,0.000,34.815
9381,3.394,0.000,0.194,2.854,0.816,8.550,0.000,34.765
9392,3.394,0.000,0.194,2.854,0.816,8.550,0.000,34.816
9403,3.394,0.000,0.194,2.854,0.816,8.550,0.000,34.780
9414,3.394,0.000,0.194,2.854,0.816,8.550,0.000,34.806
9425,3.394,0.000,0.194,2.854,0.816,8.550,0.000,34.815
9436,3.394,0.000,0.194,2.854,0.816,8.550,0.000,34.823
9447,3.394,0.000,0.194,2.854,0.816,8.550,0.000,34.846
9458,3.394,0.000,0.194,2.854,0.816,8.550,0.000,34.818
9469,3.394,0.000,0.194,2.854,0.816,8.550,0.000,34.825
9480,3.394,0.000,0.194,2.854,0.816,8.550,0.000,34.848
9491,3.394,0.000,0.194,2.854,0.816,8.550,0.000,34.798
9502,3.394,0.000,0.194,2.854,0.816,8.550,0.000,34.792
9513,3.394,0.000,0.194,2.854,0.816,8.550,0.000,34.808
9524,3.394,0.000,0.194,2.854,0.816,8.550,0.000,34.810
9535,3.394,0.000,0.194,2.854,0.816,8.550,0.000,34.822
9546,3.394,0.000,0.194,2.854,0.816,8.550,0.000,34.833
9557,3.394,0.000,0.194,2.854,0.816,8.550,0.000,34.798
9568,3.394,0.000,0.194,2.854,0.816,8.550,0.000,34.824
9579,3.394,0.000,0.194,2.854,0.816,8.550,0.000,34.829
9590,3.394,0.000,0.194,2.854,0.816,8.550,0.000,34.836
9601,3.394,0.000,0.194,2.854,0.816,8.550,0.000,34.838
9612,3.394,0.000,0.194,2.854,0.816,8.550,0.000,34.832
9623,3.394,0.000,0.194,2.854,0.816,8.550,0.000,34.830
9634,3.394,0.000,0.194,2.854,0.816,8.550,0.000,34.817
9645,3.394,0.000,0.194,2.854,0.816,8.550,0.000,34.846
9656,3.394,0.000,0.194,2.854,0.816,8.550,0.000,34.780
9667,3.394,0.000,0.194,2.854,0.816,8.550,0.000,34.852
9678,3.394,0.000,0.194,2.854,0.816,8.550,0.000,34.820
9689,3.394,0.000,0.194,2.854,0.816,8.550,0.000,34.845
9700,3.394,0.000,0.194,2.854,0.816,8.550,0.000,34.817
9711,3.394,0.000,0.194,2.854,0.816,8.550,0.000,34.849
9722,3.394,0.000,0.194,2.854,0.816,8.550,0.000,34.812
9733,3.394,0.000,0.194,2.854,0.816,8.550,0.000,34.794
9744,3.394,0.000,0.194,2.854,0.816,8.550,0.000,34.796
9755,3.394,0.000,0.194,2.854,0.816,8.550,0.000,34.820
9766,3.394,0.000,0.194,2.854,0.816,8.550,0.000,34.849
9777,3.394,0.000,0.194,2.854,0.816,8.550,0.000,34.833
9788,3.394,0.000,0.194,2.854,0.816,8.550,0.000,34.824
9799,3.394,0.000,0.194,2.854,0.816,8.550,0.000,34.835
9810,3.394,0.000,0.194,2.854,0.816,8.550,0.000,34.835
9821,3.394,0.000,0.194,2.854,0.816,8.550,0.000,34.793
9832,3.394,0.000,0.194,2.854,0.816,8.550,0.000,34.851
9843,3.394,0.000,0.194,2.854,0.816,8.550,0.000,34.834
9854,3.394,0.000,0.194,2.854,0.816,8.550,0.000,34.833
9865,3.394,0.000,0.194,2.854,0.816,8.550,0.000,34.812
9870,3.394,0.000,0.194,2.854,0.816,8.550,0.000,34.810