File: data/T35/3C/2.csv
time_s,voltage_v,current_a,chargecapacity_ah,dischargecapacity_ah,charge_energy_wh,discharge_energy_wh,voltagedot_v_per_s,temp_degc
1,3.332,0.000,0.000,0.000,0.000,0.000,0.000,34.524
21,3.332,0.000,0.000,0.000,0.000,0.000,0.000,34.571
41,3.332,0.000,0.000,0.000,0.000,0.000,0.000,34.540
60,3.332,0.000,0.000,0.000,0.000,0.000,0.000,34.517
80,3.507,1.625,0.009,0.000,0.032,0.000,0.000,34.629
100,3.513,1.625,0.018,0.000,0.063,0.000,0.000,34.641
120,3.517,1.625,0.027,0.000,0.095,0.000,0.000,34.690
140,3.520,1.625,0.036,0.000,0.127,0.000,0.000,34.765
160,3.523,1.625,0.045,0.000,0.159,0.000,0.000,34.792
180,3.525,1.625,0.054,0.000,0.190,0.000,0.000,34.848
200,3.528,1.625,0.063,0.000,0.222,0.000,0.000,34.928
220,3.531,1.625,0.072,0.000,0.254,0.000,0.000,34.952
240,3.533,1.625,0.081,0.000,0.286,0.000,0.000,35.046
260,3.536,1.625,0.090,0.000,0.318,0.000,0.000,35.108
280,3.539,1.625,0.099,0.000,0.350,0.000,0.000,35.070
300,3.541,1.625,0.108,0.000,0.382,0.000,0.000,35.112
320,3.544,1.625,0.117,0.000,0.414,0.000,0.000,35.184
340,3.546,1.625,0.126,0.000,0.446,0.000,0.000,35.200
360,3.548,1.625,0.135,0.000,0.478,0.000,0.000,35.279
380,3.551,1.625,0.144,0.000,0.510,0.000,0.000,35.279
400,3.553,1.625,0.153,0.000,0.542,0.000,0.000,35.292
420,3.556,1.625,0.163,0.000,0.574,0.000,0.000,35.353
440,3.558,1.625,0.172,0.000,0.606,0.000,0.000,35.361
460,3.560,1.625,0.181,0.000,0.638,0.000,0.000,35.379
480,3.563,1.625,0.190,0.000,0.670,0.000,0.000,35.388
500,3.566,1.625,0.199,0.000,0.703,0.000,0.000,35.400
520,3.568,1.625,0.208,0.000,0.735,0.000,0.000,35.428
540,3.571,1.625,0.217,0.000,0.767,0.000,0.000,35.425
560,3.573,1.625,0.226,0.000,0.799,0.000,0.000,35.433
580,3.576,1.625,0.235,0.000,0.832,0.000,0.000,35.438
600,3.578,1.625,0.244,0.000,0.864,0.000,0.000,35.450
620,3.581,1.625,0.253,0.000,0.896,0.000,0.000,35.448
640,3.584,1.625,0.262,0.000,0.929,0.000,0.000,35.481
660,3.586,1.625,0.271,0.000,0.961,0.000,0.000,35.451
680,3.589,1.625,0.280,0.000,0.993,0.000,0.000,35.492
700,3.591,1.625,0.289,0.000,1.026,0.000,0.000,35.477
720,3.595,1.625,0.298,0.000,1.058,0.000,0.000,35.439
740,3.597,1.625,0.307,0.000,1.091,0.000,0.000,35.497
760,3.600,1.625,0.316,0.000,1.123,0.000,0.000,35.472
780,3.603,1.625,0.325,0.000,1.156,0.000,0.000,35.499
800,3.606,1.625,0.334,0.000,1.188,0.000,0.000,35.500
820,3.608,1.625,0.343,0.000,1.221,0.000,0.000,35.431
840,3.611,1.625,0.352,0.000,1.253,0.000,0.000,35.479
860,3.614,1.625,0.361,0.000,1.286,0.000,0.000,35.458
880,3.616,1.625,0.370,0.000,1.319,0.000,0.000,35.485
900,3.619,1.625,0.379,0.000,1.351,0.000,0.000,35.506
920,3.621,1.625,0.388,0.000,1.384,0.000,0.000,35.472
940,3.624,1.625,0.397,0.000,1.417,0.000,0.000,35.534
960,3.626,1.625,0.406,0.000,1.449,0.000,0.000,35.474
980,3.628,1.625,0.415,0.000,1.482,0.000,0.000,35.437
1000,3.630,1.625,0.424,0.000,1.515,0.000,0.000,35.442
1020,3.632,1.625,0.433,0.000,1.548,0.000,0.000,35.478
1040,3.635,1.625,0.442,0.000,1.580,0.000,0.000,35.434
1060,3.636,1.625,0.451,0.000,1.613,0.000,0.000,35.422
1080,3.638,1.625,0.460,0.000,1.646,0.000,0.000,35.430
1100,3.640,1.625,0.469,0.000,1.679,0.000,0.000,35.399
1120,3.642,1.625,0.479,0.000,1.712,0.000,0.000,35.438
1140,3.644,1.625,0.488,0.000,1.745,0.000,0.000,35.426
1160,3.646,1.625,0.497,0.000,1.778,0.000,0.000,35.462
1180,3.647,1.625,0.506,0.000,1.811,0.000,0.000,35.453
1200,3.649,1.625,0.515,0.000,1.843,0.000,0.000,35.421
1220,3.651,1.625,0.524,0.000,1.876,0.000,0.000,35.402
1240,3.652,1.625,0.533,0.000,1.909,0.000,0.000,35.407
1260,3.654,1.625,0.542,0.000,1.942,0.000,0.000,35.393
1280,3.655,1.625,0.551,0.000,1.975,0.000,0.000,35.450
1300,3.657,1.625,0.560,0.000,2.008,0.000,0.000,35.439
1320,3.659,1.625,0.569,0.000,2.041,0.000,0.000,35.417
1340,3.660,1.625,0.578,0.000,2.074,0.000,0.000,35.429
1360,3.662,1.625,0.587,0.000,2.108,0.000,0.000,35.412
1380,3.664,1.625,0.596,0.000,2.141,0.000,0.000,35.393
1400,3.665,1.625,0.605,0.000,2.174,0.000,0.000,35.433
1420,3.667,1.625,0.614,0.000,2.207,0.000,0.000,35.449
1440,3.669,1.625,0.623,0.000,2.240,0.000,0.000,35.387
1460,3.671,1.625,0.632,0.000,2.273,0.000,0.000,35.449
1480,3.672,1.625,0.641,0.000,2.306,0.000,0.000,35.476
1500,3.674,1.625,0.650,0.000,2.339,0.000,0.000,35.498
1520,3.676,1.625,0.659,0.000,2.373,0.000,0.000,35.450
1540,3.678,1.625,0.668,0.000,2.406,0.000,0.000,35.448
1560,3.679,1.625,0.677,0.000,2.439,0.000,0.000,35.469
1580,3.681,1.625,0.686,0.000,2.472,0.000,0.000,35.460
1600,3.683,1.625,0.695,0.000,2.505,0.000,0.000,35.476
1620,3.685,1.625,0.704,0.000,2.539,0.000,0.000,35.440
1640,3.687,1.625,0.713,0.000,2.572,0.000,0.000,35.488
1660,3.688,1.625,0.722,0.000,2.605,0.000,0.000,35.486
1680,3.690,1.625,0.731,0.000,2.639,0.000,0.000,35.488
1700,3.692,1.625,0.740,0.000,2.672,0.000,0.000,35.444
1720,3.694,1.625,0.749,0.000,2.705,0.000,0.000,35.482
1740,3.695,1.625,0.758,0.000,2.739,0.000,0.000,35.514
1760,3.697,1.625,0.767,0.000,2.772,0.000,0.000,35.576
1780,3.699,1.625,0.776,0.000,2.805,0.000,0.000,35.539
1800,3.701,1.625,0.785,0.000,2.839,0.000,0.000,35.530
1820,3.703,1.625,0.795,0.000,2.872,0.000,0.000,35.492
1840,3.705,1.625,0.804,0.000,2.906,0.000,0.000,35.541
1860,3.707,1.625,0.813,0.000,2.939,0.000,0.000,35.543
1880,3.708,1.625,0.822,0.000,2.973,0.000,0.000,35.562
1900,3.710,1.625,0.831,0.000,3.006,0.000,0.000,35.543
1920,3.712,1.625,0.840,0.000,3.040,0.000,0.000,35.547
1940,3.714,1.625,0.849,0.000,3.073,0.000,0.000,35.548
1960,3.716,1.625,0.858,0.000,3.107,0.000,0.000,35.565
1980,3.718,1.625,0.867,0.000,3.140,0.000,0.000,35.595
2000,3.719,1.625,0.876,0.000,3.174,0.000,0.000,35.606
2020,3.721,1.625,0.885,0.000,3.207,0.000,0.000,35.612
2040,3.723,1.625,0.894,0.000,3.241,0.000,0.000,35.619
2060,3.725,1.625,0.903,0.000,3.275,0.000,0.000,35.597
2080,3.727,1.625,0.912,0.000,3.308,0.000,0.000,35.604
2100,3.728,1.625,0.921,0.000,3.342,0.000,0.000,35.616
2120,3.730,1.625,0.930,0.000,3.375,0.000,0.000,35.620
2140,3.732,1.625,0.939,0.000,3.409,0.000,0.000,35.597
2160,3.734,1.625,0.948,0.000,3.443,0.000,0.000,35.658
2180,3.736,1.625,0.957,0.000,3.477,0.000,0.000,35.656
2200,3.738,1.625,0.966,0.000,3.510,0.000,0.000,35.613
2220,3.739,1.625,0.975,0.000,3.544,0.000,0.000,35.674
2240,3.741,1.625,0.984,0.000,3.578,0.000,0.000,35.651
2260,3.743,1.625,0.993,0.000,3.612,0.000,0.000,35.653
2280,3.744,1.625,1.002,0.000,3.645,0.000,0.000,35.681
2300,3.746,1.625,1.011,0.000,3.679,0.000,0.000,35.686
2320,3.748,1.625,1.020,0.000,3.713,0.000,0.000,35.708
2340,3.750,1.625,1.029,0.000,3.747,0.000,0.000,35.690
2360,3.751,1.625,1.038,0.000,3.781,0.000,0.000,35.709
2380,3.753,1.625,1.047,0.000,3.815,0.000,0.000,35.660
2400,3.755,1.625,1.056,0.000,3.849,0.000,0.000,35.722
2420,3.756,1.625,1.065,0.000,3.882,0.000,0.000,35.715
2440,3.758,1.625,1.074,0.000,3.916,0.000,0.000,35.694
2460,3.760,1.625,1.083,0.000,3.950,0.000,0.000,35.726
2480,3.761,1.625,1.092,0.000,3.984,0.000,0.000,35.771
2500,3.763,1.625,1.101,0.000,4.018,0.000,0.000,35.735
2520,3.764,1.625,1.111,0.000,4.052,0.000,0.000,35.791
2540,3.766,1.625,1.120,0.000,4.086,0.000,0.000,35.739
2560,3.768,1.625,1.129,0.000,4.120,0.000,0.000,35.731
2580,3.769,1.625,1.138,0.000,4.154,0.000,0.000,35.740
2600,3.771,1.625,1.147,0.000,4.188,0.000,0.000,35.753
2620,3.773,1.625,1.156,0.000,4.222,0.000,0.000,35.743
2640,3.774,1.625,1.165,0.000,4.256,0.000,0.000,35.735
2660,3.776,1.625,1.174,0.000,4.290,0.000,0.000,35.786
2680,3.778,1.625,1.183,0.000,4.325,0.000,0.000,35.778
2700,3.779,1.625,1.192,0.000,4.359,0.000,0.000,35.782
2720,3.781,1.625,1.201,0.000,4.393,0.000,0.000,35.732
2740,3.783,1.625,1.210,0.000,4.427,0.000,0.000,35.734
2760,3.785,1.625,1.219,0.000,4.461,0.000,0.000,35.781
2780,3.786,1.625,1.228,0.000,4.495,0.000,0.000,35.710
2800,3.788,1.625,1.237,0.000,4.529,0.000,0.000,35.730
2820,3.790,1.625,1.246,0.000,4.564,0.000,0.000,35.746
2840,3.792,1.625,1.255,0.000,4.598,0.000,0.000,35.756
2860,3.794,1.625,1.264,0.000,4.632,0.000,0.000,35.781
2880,3.795,1.625,1.273,0.000,4.666,0.000,0.000,35.776
2900,3.797,1.625,1.282,0.000,4.701,0.000,0.000,35.783
2920,3.799,1.625,1.291,0.000,4.735,0.000,0.000,35.764
2940,3.801,1.625,1.300,0.000,4.769,0.000,0.000,35.714
2960,3.803,1.625,1.309,0.000,4.804,0.000,0.000,35.779
2980,3.805,1.625,1.318,0.000,4.838,0.000,0.000,35.773
3000,3.807,1.625,1.327,0.000,4.872,0.000,0.000,35.737
3020,3.809,1.625,1.336,0.000,4.907,0.000,0.000,35.804
3040,3.811,1.625,1.345,0.000,4.941,0.000,0.000,35.785
3060,3.812,1.625,1.354,0.000,4.975,0.000,0.000,35.800
3080,3.814,1.625,1.363,0.000,5.010,0.000,0.000,35.748
3100,3.816,1.625,1.372,0.000,5.044,0.000,0.000,35.782
3120,3.818,1.625,1.381,0.000,5.079,0.000,0.000,35.826
3140,3.820,1.625,1.390,0.000,5.113,0.000,0.000,35.806
3160,3.823,1.625,1.399,0.000,5.148,0.000,0.000,35.784
3180,3.825,1.625,1.408,0.000,5.182,0.000,0.000,35.820
3200,3.827,1.625,1.417,0.000,5.217,0.000,0.000,35.834
3220,3.829,1.625,1.427,0.000,5.251,0.000,0.000,35.756
3240,3.831,1.625,1.436,0.000,5.286,0.000,0.000,35.827
3260,3.833,1.625,1.445,0.000,5.321,0.000,0.000,35.806
3280,3.835,1.625,1.454,0.000,5.355,0.000,0.000,35.797
3300,3.837,1.625,1.463,0.000,5.390,0.000,0.000,35.817
3320,3.840,1.625,1.472,0.000,5.425,0.000,0.000,35.828
3340,3.842,1.625,1.481,0.000,5.459,0.000,0.000,35.797
3360,3.844,1.625,1.490,0.000,5.494,0.000,0.000,35.852
3380,3.847,1.625,1.499,0.000,5.529,0.000,0.000,35.767
3400,3.849,1.625,1.508,0.000,5.563,0.000,0.000,35.822
3420,3.851,1.625,1.517,0.000,5.598,0.000,0.000,35.790
3440,3.854,1.625,1.526,0.000,5.633,0.000,0.000,35.842
3460,3.856,1.625,1.535,0.000,5.668,0.000,0.000,35.844
3480,3.858,1.625,1.544,0.000,5.703,0.000,0.000,35.816
3500,3.860,1.625,1.553,0.000,5.737,0.000,0.000,35.788
3520,3.863,1.625,1.562,0.000,5.772,0.000,0.000,35.823
3540,3.865,1.625,1.571,0.000,5.807,0.000,0.000,35.820
3560,3.867,1.625,1.580,0.000,5.842,0.000,0.000,35.835
3580,3.870,1.625,1.589,0.000,5.877,0.000,0.000,35.820
3600,3.873,1.625,1.598,0.000,5.912,0.000,0.000,35.813
3620,3.875,1.625,1.607,0.000,5.947,0.000,0.000,35.830
3640,3.877,1.625,1.616,0.000,5.982,0.000,0.000,35.787
3660,3.880,1.625,1.625,0.000,6.017,0.000,0.000,35.811
3680,3.882,1.625,1.634,0.000,6.052,0.000,0.000,35.844
3700,3.885,1.625,1.643,0.000,6.087,0.000,0.000,35.800
3720,3.887,1.625,1.652,0.000,6.122,0.000,0.000,35.805
3740,3.890,1.625,1.661,0.000,6.157,0.000,0.000,35.824
3760,3.892,1.625,1.670,0.000,6.192,0.000,0.000,35.835
3780,3.895,1.625,1.679,0.000,6.227,0.000,0.000,35.820
3800,3.897,1.625,1.688,0.000,6.263,0.000,0.000,35.821
3820,3.900,1.625,1.697,0.000,6.298,0.000,0.000,35.780
3840,3.903,1.625,1.706,0.000,6.333,0.000,0.000,35.844
3860,3.905,1.625,1.715,0.000,6.368,0.000,0.000,35.788
3880,3.908,1.625,1.724,0.000,6.404,0.000,0.000,35.803
3900,3.910,1.625,1.733,0.000,6.439,0.000,0.000,35.766
3920,3.913,1.625,1.742,0.000,6.474,0.000,0.000,35.824
3940,3.915,1.625,1.752,0.000,6.510,0.000,0.000,35.790
3960,3.918,1.625,1.761,0.000,6.545,0.000,0.000,35.778
3980,3.920,1.625,1.770,0.000,6.580,0.000,0.000,35.768
4000,3.923,1.625,1.779,0.000,6.616,0.000,0.000,35.832
4020,3.926,1.625,1.788,0.000,6.651,0.000,0.000,35.796
4040,3.928,1.625,1.797,0.000,6.687,0.000,0.000,35.860
4060,3.931,1.625,1.806,0.000,6.722,0.000,0.000,35.790
4080,3.933,1.625,1.815,0.000,6.758,0.000,0.000,35.795
4100,3.936,1.625,1.824,0.000,6.793,0.000,0.000,35.842
4120,3.938,1.625,1.833,0.000,6.829,0.000,0.000,35.770
4140,3.941,1.625,1.842,0.000,6.864,0.000,0.000,35.780
4160,3.944,1.625,1.851,0.000,6.900,0.000,0.000,35.829
4180,3.946,1.625,1.860,0.000,6.935,0.000,0.000,35.807
4200,3.949,1.625,1.869,0.000,6.971,0.000,0.000,35.775
4220,3.951,1.625,1.878,0.000,7.007,0.000,0.000,35.783
4240,3.954,1.625,1.887,0.000,7.042,0.000,0.000,35.784
4260,3.957,1.625,1.896,0.000,7.078,0.000,0.000,35.812
4280,3.959,1.625,1.905,0.000,7.114,0.000,0.000,35.739
4300,3.962,1.625,1.914,0.000,7.150,0.000,0.000,35.813
4320,3.964,1.625,1.923,0.000,7.185,0.000,0.000,35.783
4340,3.967,1.625,1.932,0.000,7.221,0.000,0.000,35.784
4360,3.970,1.625,1.941,0.000,7.257,0.000,0.000,35.763
4380,3.972,1.625,1.950,0.000,7.293,0.000,0.000,35.769
4400,3.974,1.625,1.959,0.000,7.329,0.000,0.000,35.734
4420,3.977,1.625,1.968,0.000,7.365,0.000,0.000,35.705
4440,3.980,1.625,1.977,0.000,7.401,0.000,0.000,35.705
4460,3.983,1.625,1.986,0.000,7.436,0.000,0.000,35.707
4480,3.985,1.625,1.995,0.000,7.472,0.000,0.000,35.786
4500,3.987,1.625,2.004,0.000,7.508,0.000,0.000,35.728
4520,3.990,1.625,2.013,0.000,7.544,0.000,0.000,35.785
4540,3.992,1.625,2.022,0.000,7.580,0.000,0.000,35.715
4560,3.995,1.625,2.031,0.000,7.617,0.000,0.000,35.709
4580,3.998,1.625,2.040,0.000,7.653,0.000,0.000,35.727
4600,4.000,1.625,2.049,0.000,7.689,0.000,0.000,35.740
4620,4.002,1.625,2.058,0.000,7.725,0.000,0.000,35.720
4640,4.005,1.625,2.068,0.000,7.761,0.000,0.000,35.722
4660,4.008,1.625,2.077,0.000,7.797,0.000,0.000,35.703
4680,4.010,1.625,2.086,0.000,7.833,0.000,0.000,35.733
4700,4.013,1.625,2.095,0.000,7.870,0.000,0.000,35.708
4720,4.015,1.625,2.104,0.000,7.906,0.000,0.000,35.675
4740,4.018,1.625,2.113,0.000,7.942,0.000,0.000,35.718
4760,4.020,1.625,2.122,0.000,7.978,0.000,0.000,35.721
4780,4.023,1.625,2.131,0.000,8.015,0.000,0.000,35.711
4800,4.025,1.625,2.140,0.000,8.051,0.000,0.000,35.686
4820,4.028,1.625,2.149,0.000,8.087,0.000,0.000,35.707
4840,4.030,1.625,2.158,0.000,8.124,0.000,0.000,35.675
4860,4.033,1.625,2.167,0.000,8.160,0.000,0.000,35.718
4880,4.035,1.625,2.176,0.000,8.197,0.000,0.000,35.682
4900,4.038,1.625,2.185,0.000,8.233,0.000,0.000,35.732
4920,4.040,1.625,2.194,0.000,8.269,0.000,0.000,35.755
4940,4.043,1.625,2.203,0.000,8.306,0.000,0.000,35.692
4960,4.045,1.625,2.212,0.000,8.342,0.000,0.000,35.699
4980,4.048,1.625,2.221,0.000,8.379,0.000,0.000,35.735
5000,4.051,1.625,2.230,0.000,8.416,0.000,0.000,35.760
5020,4.053,1.625,2.239,0.000,8.452,0.000,0.000,35.730
5040,4.056,1.625,2.248,0.000,8.489,0.000,0.000,35.748
5060,4.059,1.625,2.257,0.000,8.525,0.000,0.000,35.722
5080,4.061,1.625,2.266,0.000,8.562,0.000,0.000,35.705
5100,4.064,1.625,2.275,0.000,8.599,0.000,0.000,35.727
5120,4.067,1.625,2.284,0.000,8.635,0.000,0.000,35.685
5140,4.069,1.625,2.293,0.000,8.672,0.000,0.000,35.746
5160,4.072,1.625,2.302,0.000,8.709,0.000,0.000,35.732
5180,4.075,1.625,2.311,0.000,8.746,0.000,0.000,35.763
5200,4.078,1.625,2.320,0.000,8.782,0.000,0.000,35.755
5220,4.081,1.625,2.329,0.000,8.819,0.000,0.000,35.741
5240,4.083,1.625,2.338,0.000,8.856,0.000,0.000,35.737
5260,4.086,1.625,2.347,0.000,8.893,0.000,0.000,35.738
5280,4.089,1.625,2.356,0.000,8.930,0.000,0.000,35.734
5300,4.092,1.625,2.365,0.000,8.967,0.000,0.000,35.750
5320,4.095,1.625,2.374,0.000,9.004,0.000,0.000,35.747
5340,4.098,1.625,2.384,0.000,9.041,0.000,0.000,35.772
5360,4.101,1.625,2.393,0.000,9.078,0.000,0.000,35.771
5380,4.104,1.625,2.402,0.000,9.115,0.000,0.000,35.764
5400,4.107,1.625,2.411,0.000,9.152,0.000,0.000,35.779
5420,4.111,1.625,2.420,0.000,9.189,0.000,0.000,35.764
5440,4.114,1.625,2.429,0.000,9.226,0.000,0.000,35.769
5460,4.117,1.625,2.438,0.000,9.263,0.000,0.000,35.766
5480,4.120,1.625,2.447,0.000,9.301,0.000,0.000,35.801
5500,4.123,1.625,2.456,0.000,9.338,0.000,0.000,35.767
5520,4.127,1.625,2.465,0.000,9.375,0.000,0.000,35.791
5540,4.130,1.625,2.474,0.000,9.412,0.000,0.000,35.793
5560,4.133,1.625,2.483,0.000,9.450,0.000,0.000,35.765
5580,4.137,1.625,2.492,0.000,9.487,0.000,0.000,35.826
5600,4.140,1.625,2.501,0.000,9.524,0.000,0.000,35.809
5620,4.144,1.625,2.510,0.000,9.562,0.000,0.000,35.827
5640,4.147,1.625,2.519,0.000,9.599,0.000,0.000,35.839
5660,4.151,1.625,2.528,0.000,9.637,0.000,0.000,35.825
5680,4.154,1.625,2.537,0.000,9.674,0.000,0.000,35.813
5700,4.158,1.625,2.546,0.000,9.712,0.000,0.000,35.797
5720,4.161,1.625,2.555,0.000,9.749,0.000,0.000,35.822
5740,4.165,1.625,2.564,0.000,9.787,0.000,0.000,35.812
5760,4.169,1.625,2.573,0.000,9.824,0.000,0.000,35.838
5780,4.172,1.625,2.582,0.000,9.862,0.000,0.000,35.860
5800,4.176,1.625,2.591,0.000,9.900,0.000,0.000,35.828
5820,4.179,1.625,2.600,0.000,9.937,0.000,0.000,35.865
5840,4.183,1.625,2.609,0.000,9.975,0.000,0.000,35.842
5860,4.187,1.625,2.618,0.000,10.013,0.000,0.000,35.879
5880,4.191,1.625,2.627,0.000,10.051,0.000,0.000,35.833
5900,4.194,1.625,2.636,0.000,10.089,0.000,0.000,35.869
5920,4.198,1.625,2.645,0.000,10.126,0.000,0.000,35.838
5940,4.200,1.603,2.654,0.000,10.164,0.000,0.000,35.911
5960,4.200,1.554,2.663,0.000,10.200,0.000,0.000,35.855
5980,4.200,1.513,2.671,0.000,10.236,0.000,0.000,35.852
6000,4.200,1.476,2.680,0.000,10.271,0.000,0.000,35.900
6020,4.200,1.442,2.688,0.000,10.305,0.000,0.000,35.849
6040,4.200,1.412,2.696,0.000,10.338,0.000,0.000,35.889
6060,4.200,1.382,2.704,0.000,10.371,0.000,0.000,35.860
6080,4.200,1.353,2.711,0.000,10.403,0.000,0.000,35.869
6100,4.200,1.326,2.719,0.000,10.434,0.000,0.000,35.829
6120,4.200,1.300,2.726,0.000,10.465,0.000,0.000,35.853
6140,4.200,1.274,2.733,0.000,10.495,0.000,0.000,35.777
6160,4.200,1.250,2.740,0.000,10.524,0.000,0.000,35.769
6180,4.200,1.226,2.747,0.000,10.553,0.000,0.000,35.798
6200,4.200,1.203,2.754,0.000,10.581,0.000,0.000,35.697
6220,4.200,1.181,2.760,0.000,10.609,0.000,0.000,35.712
6240,4.200,1.159,2.767,0.000,10.636,0.000,0.000,35.716
6260,4.200,1.138,2.773,0.000,10.663,0.000,0.000,35.709
6280,4.200,1.118,2.779,0.000,10.689,0.000,0.000,35.707
6300,4.200,1.098,2.786,0.000,10.715,0.000,0.000,35.626
6320,4.200,1.079,2.792,0.000,10.741,0.000,0.000,35.613
6340,4.200,1.061,2.798,0.000,10.766,0.000,0.000,35.592
6360,4.200,1.043,2.803,0.000,10.790,0.000,0.000,35.584
6380,4.200,1.025,2.809,0.000,10.814,0.000,0.000,35.551
6400,4.200,1.009,2.815,0.000,10.838,0.000,0.000,35.548
6420,4.200,0.992,2.820,0.000,10.861,0.000,0.000,35.555
6440,4.200,0.976,2.826,0.000,10.884,0.000,0.000,35.506
6460,4.200,0.960,2.831,0.000,10.907,0.000,0.000,35.523
6480,4.200,0.945,2.836,0.000,10.929,0.000,0.000,35.467
6500,4.200,0.930,2.842,0.000,10.951,0.000,0.000,35.489
6520,4.200,0.916,2.847,0.000,10.973,0.000,0.000,35.505
6540,4.200,0.901,2.852,0.000,10.994,0.000,0.000,35.418
6560,4.200,0.887,2.857,0.000,11.015,0.000,0.000,35.430
6580,4.200,0.874,2.862,0.000,11.035,0.000,0.000,35.445
6600,4.200,0.861,2.867,0.000,11.055,0.000,0.000,35.421
6620,4.200,0.848,2.871,0.000,11.075,0.000,0.000,35.390
6640,4.200,0.835,2.876,0.000,11.095,0.000,0.000,35.373
6660,4.200,0.822,2.881,0.000,11.114,0.000,0.000,35.350
6680,4.200,0.809,2.885,0.000,11.133,0.000,0.000,35.350
6700,4.200,0.798,2.890,0.000,11.152,0.000,0.000,35.279
6720,4.200,0.785,2.894,0.000,11.171,0.000,0.000,35.291
6740,4.200,0.773,2.898,0.000,11.189,0.000,0.000,35.291
6760,4.200,0.761,2.903,0.000,11.207,0.000,0.000,35.302
6780,4.200,0.750,2.907,0.000,11.224,0.000,0.000,35.305
6800,4.200,0.739,2.911,0.000,11.242,0.000,0.000,35.233
6820,4.200,0.727,2.915,0.000,11.259,0.000,0.000,35.218
6840,4.200,0.716,2.919,0.000,11.276,0.000,0.000,35.221
6860,4.200,0.706,2.923,0.000,11.292,0.000,0.000,35.213
6880,4.200,0.695,2.927,0.000,11.309,0.000,0.000,35.182
6900,4.200,0.684,2.931,0.000,11.325,0.000,0.000,35.210
6920,4.200,0.674,2.934,0.000,11.340,0.000,0.000,35.189
6940,4.200,0.664,2.938,0.000,11.356,0.000,0.000,35.102
6960,4.200,0.653,2.942,0.000,11.371,0.000,0.000,35.127
6980,4.200,0.642,2.945,0.000,11.386,0.000,0.000,35.100
7000,4.200,0.632,2.949,0.000,11.401,0.000,0.000,35.092
7020,4.200,0.623,2.952,0.000,11.416,0.000,0.000,35.089
7040,4.200,0.612,2.956,0.000,11.430,0.000,0.000,35.115
7060,4.200,0.603,2.959,0.000,11.445,0.000,0.000,35.078
7080,4.200,0.593,2.963,0.000,11.459,0.000,0.000,35.082
7100,4.200,0.583,2.966,0.000,11.472,0.000,0.000,35.059
7120,4.200,0.574,2.969,0.000,11.486,0.000,0.000,35.041
7140,4.200,0.565,2.972,0.000,11.499,0.000,0.000,35.089
7160,4.200,0.555,2.975,0.000,11.512,0.000,0.000,35.013
7180,4.200,0.546,2.978,0.000,11.525,0.000,0.000,35.039
7200,4.200,0.537,2.981,0.000,11.538,0.000,0.000,34.992
7220,4.200,0.528,2.984,0.000,11.550,0.000,0.000,35.002
7240,4.200,0.520,2.987,0.000,11.562,0.000,0.000,34.999
7260,4.200,0.510,2.990,0.000,11.574,0.000,0.000,35.017
7280,4.200,0.501,2.993,0.000,11.586,0.000,0.000,34.942
7300,4.200,0.493,2.996,0.000,11.598,0.000,0.000,34.967
7320,4.200,0.484,2.998,0.000,11.609,0.000,0.000,34.990
7340,4.200,0.476,3.001,0.000,11.620,0.000,0.000,34.960
7360,4.200,0.468,3.004,0.000,11.631,0.000,0.000,34.975
7380,4.200,0.460,3.006,0.000,11.642,0.000,0.000,34.978
7400,4.200,0.452,3.009,0.000,11.653,0.000,0.000,34.930
7420,4.200,0.444,3.011,0.000,11.663,0.000,0.000,34.949
7440,4.200,0.437,3.014,0.000,11.673,0.000,0.000,34.902
7460,4.200,0.428,3.016,0.000,11.683,0.000,0.000,34.913
7480,4.200,0.420,3.018,0.000,11.693,0.000,0.000,34.927
7500,4.200,0.413,3.021,0.000,11.703,0.000,0.000,34.869
7520,4.200,0.405,3.023,0.000,11.713,0.000,0.000,34.865
7540,4.200,0.397,3.025,0.000,11.722,0.000,0.000,34.918
7560,4.200,0.390,3.027,0.000,11.731,0.000,0.000,34.888
7580,4.200,0.384,3.030,0.000,11.740,0.000,0.000,34.886
7600,4.200,0.377,3.032,0.000,11.749,0.000,0.000,34.855
7620,4.200,0.370,3.034,0.000,11.758,0.000,0.000,34.872
7640,4.200,0.363,3.036,0.000,11.766,0.000,0.000,34.842
7660,4.200,0.356,3.038,0.000,11.775,0.000,0.000,34.838
7680,4.200,0.350,3.040,0.000,11.783,0.000,0.000,34.851
7700,4.200,0.343,3.042,0.000,11.791,0.000,0.000,34.873
7720,4.200,0.336,3.044,0.000,11.799,0.000,0.000,34.862
7740,4.200,0.330,3.045,0.000,11.807,0.000,0.000,34.800
7760,4.200,0.324,3.047,0.000,11.814,0.000,0.000,34.803
7780,4.200,0.317,3.049,0.000,11.822,0.000,0.000,34.802
7800,4.200,0.311,3.051,0.000,11.829,0.000,0.000,34.832
7820,4.200,0.306,3.052,0.000,11.836,0.000,0.000,34.885
7840,4.200,0.300,3.054,0.000,11.843,0.000,0.000,34.781
7860,4.200,0.294,3.056,0.000,11.850,0.000,0.000,34.809
7880,4.200,0.288,3.057,0.000,11.857,0.000,0.000,34.785
7900,4.200,0.282,3.059,0.000,11.864,0.000,0.000,34.801
7920,4.200,0.277,3.061,0.000,11.870,0.000,0.000,34.749
7940,4.200,0.272,3.062,0.000,11.877,0.000,0.000,34.738
7960,4.200,0.266,3.064,0.000,11.883,0.000,0.000,34.764
7980,4.200,0.261,3.065,0.000,11.889,0.000,0.000,34.780
8000,4.200,0.256,3.066,0.000,11.895,0.000,0.000,34.751
8020,4.200,0.252,3.068,0.000,11.901,0.000,0.000,34.747
8040,4.200,0.246,3.069,0.000,11.907,0.000,0.000,34.770
8060,4.200,0.241,3.071,0.000,11.912,0.000,0.000,34.769
8080,4.200,0.237,3.072,0.000,11.918,0.000,0.000,34.749
8100,4.200,0.232,3.073,0.000,11.923,0.000,0.000,34.743
8120,4.200,0.228,3.074,0.000,11.929,0.000,0.000,34.750
8140,4.200,0.223,3.076,0.000,11.934,0.000,0.000,34.708
8160,4.200,0.219,3.077,0.000,11.939,0.000,0.000,34.781
8180,4.200,0.214,3.078,0.000,11.944,0.000,0.000,34.712
8200,4.200,0.210,3.079,0.000,11.949,0.000,0.000,34.740
8220,4.200,0.206,3.081,0.000,11.954,0.000,0.000,34.733
8240,4.200,0.202,3.082,0.000,11.959,0.000,0.000,34.689
8260,4.200,0.198,3.083,0.000,11.964,0.000,0.000,34.730
8280,4.200,0.194,3.084,0.000,11.968,0.000,0.000,34.716
8300,4.200,0.190,3.085,0.000,11.973,0.000,0.000,34.741
8320,4.200,0.186,3.086,0.000,11.977,0.000,0.000,34.726
8340,4.200,0.183,3.087,0.000,11.981,0.000,0.000,34.709
8360,4.200,0.179,3.088,0.000,11.985,0.000,0.000,34.724
8380,4.200,0.176,3.089,0.000,11.990,0.000,0.000,34.697
8400,4.200,0.172,3.090,0.000,11.994,0.000,0.000,34.699
8420,4.200,0.169,3.091,0.000,11.998,0.000,0.000,34.672
8440,4.200,0.166,3.092,0.000,12.002,0.000,0.000,34.722
8460,4.200,0.162,3.093,0.000,12.005,0.000,0.000,34.706
8480,4.200,0.159,3.094,0.000,12.009,0.000,0.000,34.652
8500,4.200,0.156,3.094,0.000,12.013,0.000,0.000,34.722
8520,4.200,0.153,3.095,0.000,12.016,0.000,0.000,34.733
8540,4.200,0.150,3.096,0.000,12.020,0.000,0.000,34.707
8560,4.200,0.148,3.097,0.000,12.023,0.000,0.000,34.697
8580,4.200,0.145,3.098,0.000,12.027,0.000,0.000,34.675
8600,4.200,0.141,3.099,0.000,12.030,0.000,0.000,34.715
8620,4.200,0.139,3.099,0.000,12.033,0.000,0.000,34.663
8640,4.200,0.136,3.100,0.000,12.037,0.000,0.000,34.695
8660,4.200,0.133,3.101,0.000,12.040,0.000,0.000,34.689
8680,4.200,0.131,3.102,0.000,12.043,0.000,0.000,34.656
8700,4.200,0.129,3.102,0.000,12.046,0.000,0.000,34.687
8720,4.200,0.126,3.103,0.000,12.049,0.000,0.000,34.665
8740,4.200,0.124,3.104,0.000,12.052,0.000,0.000,34.677
8760,4.200,0.121,3.104,0.000,12.055,0.000,0.000,34.692
8780,4.200,0.119,3.105,0.000,12.057,0.000,0.000,34.674
8800,4.200,0.117,3.106,0.000,12.060,0.000,0.000,34.622
8820,4.200,0.114,3.106,0.000,12.063,0.000,0.000,34.708
8840,4.200,0.112,3.107,0.000,12.066,0.000,0.000,34.671
8860,4.200,0.110,3.108,0.000,12.068,0.000,0.000,34.715
8880,4.200,0.109,3.108,0.000,12.071,0.000,0.000,34.663
8900,4.200,0.106,3.109,0.000,12.073,0.000,0.000,34.666
8920,4.200,0.105,3.109,0.000,12.076,0.000,0.000,34.681
8940,4.200,0.103,3.110,0.000,12.078,0.000,0.000,34.693
8960,4.200,0.101,3.111,0.000,12.080,0.000,0.000,34.666
8980,4.200,0.098,3.111,0.000,12.083,0.000,0.000,34.694
9000,4.200,0.097,3.112,0.000,12.085,0.000,0.000,34.673
9020,4.200,0.094,3.112,0.000,12.087,0.000,0.000,34.681
9040,4.200,0.093,3.113,0.000,12.089,0.000,0.000,34.674
9060,4.200,0.091,3.113,0.000,12.092,0.000,0.000,34.659
9080,4.200,0.089,3.114,0.000,12.094,0.000,0.000,34.654
9100,4.200,0.088,3.114,0.000,12.096,0.000,0.000,34.647
9120,4.200,0.087,3.115,0.000,12.098,0.000,0.000,34.650
9140,4.200,0.085,3.115,0.000,12.100,0.000,0.000,34.670
9160,4.200,0.084,3.116,0.000,12.102,0.000,0.000,34.637
9180,4.200,0.082,3.116,0.000,12.104,0.000,0.000,34.674
9200,4.200,0.081,3.117,0.000,12.106,0.000,0.000,34.653
9220,4.200,0.079,3.117,0.000,12.107,0.000,0.000,34.680
9240,4.200,0.078,3.117,0.000,12.109,0.000,0.000,34.638
9260,4.200,0.077,3.118,0.000,12.111,0.000,0.000,34.659
9280,4.200,0.075,3.118,0.000,12.113,0.000,0.000,34.653
9300,4.200,0.074,3.119,0.000,12.115,0.000,0.000,34.663
9320,4.200,0.073,3.119,0.000,12.116,0.000,0.000,34.650
9340,4.200,0.071,3.120,0.000,12.118,0.000,0.000,34.650
9360,4.200,0.069,3.120,0.000,12.120,0.000,0.000,34.637
9380,4.200,0.069,3.120,0.000,12.121,0.000,0.000,34.641
9400,4.200,0.068,3.121,0.000,12.123,0.000,0.000,34.652
9420,4.200,0.067,3.121,0.000,12.124,0.000,0.000,34.658
9440,4.195,0.000,3.121,0.000,12.125,0.000,0.000,34.611
9460,4.194,0.000,3.121,0.000,12.125,0.000,0.000,34.656
9480,4.194,0.000,3.121,0.000,12.125,0.000,0.000,34.682
9500,4.193,0.000,3.121,0.000,12.125,0.000,0.000,34.691
9520,4.193,0.000,3.121,0.000,12.125,0.000,0.000,34.650
9540,4.193,0.000,3.121,0.000,12.125,0.000,0.000,34.662
9560,4.192,0.000,3.121,0.000,12.125,0.000,0.000,34.733
9580,4.192,0.000,3.121,0.000,12.125,0.000,0.000,34.652
9600,4.192,0.000,3.121,0.000,12.125,0.000,0.000,34.659
9620,4.192,0.000,3.121,0.000,12.125,0.000,0.000,34.655
9640,4.191,0.000,3.121,0.000,12.125,0.000,0.000,34.657
9660,4.191,0.000,3.121,0.000,12.125,0.000,0.000,34.668
9680,4.191,0.000,3.121,0.000,12.125,0.000,0.000,34.665
9700,4.191,0.000,3.121,0.000,12.125,0.000,0.000,34.666
9720,4.191,0.000,3.121,0.000,12.125,0.000,0.000,34.642
9740,4.190,0.000,3.121,0.000,12.125,0.000,0.000,34.644
9760,4.190,0.000,3.121,0.000,12.125,0.000,0.000,34.646
9780,4.190,0.000,3.121,0.000,12.125,0.000,0.000,34.637
9800,4.190,0.000,3.121,0.000,12.125,0.000,0.000,34.648
9820,4.190,0.000,3.121,0.000,12.125,0.000,0.000,34.645
9840,4.190,0.000,3.121,0.000,12.125,0.000,0.000,34.618
9860,4.189,0.000,3.121,0.000,12.125,0.000,0.000,34.643
9880,4.189,0.000,3.121,0.000,12.125,0.000,0.000,34.614
9900,4.189,0.000,3.121,0.000,12.125,0.000,0.000,34.661
9920,4.189,0.000,3.121,0.000,12.125,0.000,0.000,34.625
9940,4.189,0.000,3.121,0.000,12.125,0.000,0.000,34.655
9960,4.189,0.000,3.121,0.000,12.125,0.000,0.000,34.714
9980,4.189,0.000,3.121,0.000,12.125,0.000,0.000,34.632
10000,4.189,0.000,3.121,0.000,12.125,0.000,0.000,34.633
10020,4.189,0.000,3.121,0.000,12.125,0.000,0.000,34.648
10040,4.188,0.000,3.121,0.000,12.125,0.000,0.000,34.661
10060,4.188,0.000,3.121,0.000,12.125,0.000,0.000,34.630
10080,4.188,0.000,3.121,0.000,12.125,0.000,0.000,34.685
10100,4.188,0.000,3.121,0.000,12.125,0.000,0.000,34.698
10120,4.188,0.000,3.121,0.000,12.125,0.000,0.000,34.664
10140,4.188,0.000,3.121,0.000,12.125,0.000,0.000,34.680
10160,4.188,0.000,3.121,0.000,12.125,0.000,0.000,34.657
10180,4.188,0.000,3.121,0.000,12.125,0.000,0.000,34.699
10200,4.188,0.000,3.121,0.000,12.125,0.000,0.000,34.621
10220,4.188,0.000,3.121,0.000,12.125,0.000,0.000,34.637
10240,4.187,0.000,3.121,0.000,12.125,0.000,0.000,34.675
10260,4.187,0.000,3.121,0.000,12.125,0.000,0.000,34.672
10280,4.187,0.000,3.121,0.000,12.125,0.000,0.000,34.618
10300,4.187,0.000,3.121,0.000,12.125,0.000,0.000,34.620
10320,4.187,0.000,3.121,0.000,12.125,0.000,0.000,34.646
10340,4.187,0.000,3.121,0.000,12.125,0.000,0.000,34.595
10360,4.187,0.000,3.121,0.000,12.125,0.000,0.000,34.626
10380,4.187,0.000,3.121,0.000,12.125,0.000,0.000,34.647
10400,4.187,0.000,3.121,0.000,12.125,0.000,0.000,34.675
10420,4.187,0.000,3.121,0.000,12.125,0.000,0.000,34.626
10440,4.186,0.000,3.121,0.000,12.125,0.000,0.000,34.644
10460,4.187,0.000,3.121,0.000,12.125,0.000,0.000,34.648
10480,4.187,0.000,3.121,0.000,12.125,0.000,0.000,34.652
10500,4.186,0.000,3.121,0.000,12.125,0.000,0.000,34.605
10520,4.186,0.000,3.121,0.000,12.125,0.000,0.000,34.651
10540,4.186,0.000,3.121,0.000,12.125,0.000,0.000,34.617
10560,4.186,0.000,3.121,0.000,12.125,0.000,0.000,34.664
10580,4.186,0.000,3.121,0.000,12.125,0.000,0.000,34.642
10600,4.186,0.000,3.121,0.000,12.125,0.000,0.000,34.652
10620,4.186,0.000,3.121,0.000,12.125,0.000,0.000,34.653
10640,4.186,0.000,3.121,0.000,12.125,0.000,0.000,34.676
10660,4.186,0.000,3.121,0.000,12.125,0.000,0.000,34.633
10680,4.186,0.000,3.121,0.000,12.125,0.000,0.000,34.663
10700,4.186,0.000,3.121,0.000,12.125,0.000,0.000,34.651
10720,4.186,0.000,3.121,0.000,12.125,0.000,0.000,34.610
10740,4.186,0.000,3.121,0.000,12.125,0.000,0.000,34.660
10760,4.185,0.000,3.121,0.000,12.125,0.000,0.000,34.679
10780,4.185,0.000,3.121,0.000,12.125,0.000,0.000,34.663
10800,4.185,0.000,3.121,0.000,12.125,0.000,0.000,34.641
10820,4.185,0.000,3.121,0.000,12.125,0.000,0.000,34.647
10840,4.185,0.000,3.121,0.000,12.125,0.000,0.000,34.631
10860,4.185,0.000,3.121,0.000,12.125,0.000,0.000,34.642
10880,4.185,0.000,3.121,0.000,12.125,0.000,0.000,34.661
10900,4.185,0.000,3.121,0.000,12.125,0.000,0.000,34.624
10920,4.185,0.000,3.121,0.000,12.125,0.000,0.000,34.643
10940,4.185,0.000,3.121,0.000,12.125,0.000,0.000,34.672
10960,4.185,0.000,3.121,0.000,12.125,0.000,0.000,34.659
10980,4.185,0.000,3.121,0.000,12.125,0.000,0.000,34.649
11000,4.185,0.000,3.121,0.000,12.125,0.000,0.000,34.667
11020,4.185,0.000,3.121,0.000,12.125,0.000,0.000,34.693
11040,4.185,0.000,3.121,0.000,12.125,0.000,0.000,34.604
11060,4.185,0.000,3.121,0.000,12.125,0.000,0.000,34.650
11080,4.185,0.000,3.121,0.000,12.125,0.000,0.000,34.638
11100,4.185,0.000,3.121,0.000,12.125,0.000,0.000,34.622
11120,4.185,0.000,3.121,0.000,12.125,0.000,0.000,34.650
11140,4.185,0.000,3.121,0.000,12.125,0.000,0.000,34.666
11160,4.184,0.000,3.121,0.000,12.125,0.000,0.000,34.654
11180,4.184,0.000,3.121,0.000,12.125,0.000,0.000,34.627
11200,4.184,0.000,3.121,0.000,12.125,0.000,0.000,34.650
11220,4.184,0.000,3.121,0.000,12.125,0.000,0.000,34.687
11240,4.184,0.000,3.121,0.000,12.125,0.000,0.000,34.666
11260,4.184,0.000,3.121,0.000,12.125,0.000,0.000,34.666
11280,4.184,0.000,3.121,0.000,12.125,0.000,0.000,34.639
11300,4.184,0.000,3.121,0.000,12.125,0.000,0.000,34.625
11320,4.184,0.000,3.121,0.000,12.125,0.000,0.000,34.634
11340,4.184,0.000,3.121,0.000,12.125,0.000,0.000,34.639
11360,4.184,0.000,3.121,0.000,12.125,0.000,0.000,34.649
11380,4.184,0.000,3.121,0.000,12.125,0.000,0.000,34.683
11400,4.184,0.000,3.121,0.000,12.125,0.000,0.000,34.623
11420,4.184,0.000,3.121,0.000,12.125,0.000,0.000,34.669
11440,4.184,0.000,3.121,0.000,12.125,0.000,0.000,34.663
11460,4.184,0.000,3.121,0.000,12.125,0.000,0.000,34.663
11480,4.184,0.000,3.121,0.000,12.125,0.000,0.000,34.671
11500,4.184,0.000,3.121,0.000,12.125,0.000,0.000,34.662
11520,4.184,0.000,3.121,0.000,12.125,0.000,0.000,34.638
11540,4.184,0.000,3.121,0.000,12.125,0.000,0.000,34.637
11560,4.183,0.000,3.121,0.000,12.125,0.000,0.000,34.669
11580,4.184,0.000,3.121,0.000,12.125,0.000,0.000,34.645
11600,4.183,0.000,3.121,0.000,12.125,0.000,0.000,34.651
11620,4.184,0.000,3.121,0.000,12.125,0.000,0.000,34.652
11640,4.183,0.000,3.121,0.000,12.125,0.000,0.000,34.683
11660,4.183,0.000,3.121,0.000,12.125,0.000,0.000,34.653
11680,4.183,0.000,3.121,0.000,12.125,0.000,0.000,34.677
11700,4.183,0.000,3.121,0.000,12.125,0.000,0.000,34.661
11720,4.183,0.000,3.121,0.000,12.125,0.000,0.000,34.666
11740,4.183,0.000,3.121,0.000,12.125,0.000,0.000,34.642
11760,4.183,0.000,3.121,0.000,12.125,0.000,0.000,34.663
11780,4.183,0.000,3.121,0.000,12.125,0.000,0.000,34.663
11800,4.183,0.000,3.121,0.000,12.125,0.000,0.000,34.650
11820,4.183,0.000,3.121,0.000,12.125,0.000,0.000,34.642
11840,4.183,0.000,3.121,0.000,12.125,0.000,0.000,34.644
11860,4.183,0.000,3.121,0.000,12.125,0.000,0.000,34.646
11880,4.183,0.000,3.121,0.000,12.125,0.000,0.000,34.691
11900,4.183,0.000,3.121,0.000,12.125,0.000,0.000,34.681
11920,4.183,0.000,3.121,0.000,12.125,0.000,0.000,34.666
11940,4.183,0.000,3.121,0.000,12.125,0.000,0.000,34.652
11960,4.183,0.000,3.121,0.000,12.125,0.000,0.000,34.665
11980,4.183,0.000,3.121,0.000,12.125,0.000,0.000,34.680
12000,4.183,0.000,3.121,0.000,12.125,0.000,0.000,34.622
12020,4.183,0.000,3.121,0.000,12.125,0.000,0.000,34.671
12040,4.183,0.000,3.121,0.000,12.125,0.000,0.000,34.684
12060,4.183,0.000,3.121,0.000,12.125,0.000,0.000,34.657
12080,4.183,0.000,3.121,0.000,12.125,0.000,0.000,34.662
12100,4.183,0.000,3.121,0.000,12.125,0.000,0.000,34.632
12120,4.183,0.000,3.121,0.000,12.125,0.000,0.000,34.669
12140,4.183,0.000,3.121,0.000,12.125,0.000,0.000,34.666
12160,4.183,0.000,3.121,0.000,12.125,0.000,0.000,34.639
12180,4.182,0.000,3.121,0.000,12.125,0.000,0.000,34.607
12200,4.183,0.000,3.121,0.000,12.125,0.000,0.000,34.662
12220,4.183,0.000,3.121,0.000,12.125,0.000,0.000,34.662
12240,4.182,0.000,3.121,0.000,12.125,0.000,0.000,34.635
12260,4.183,0.000,3.121,0.000,12.125,0.000,0.000,34.608
12280,4.182,0.000,3.121,0.000,12.125,0.000,0.000,34.666
12300,4.182,0.000,3.121,0.000,12.125,0.000,0.000,34.638
12320,4.183,0.000,3.121,0.000,12.125,0.000,0.000,34.655
12340,4.182,0.000,3.121,0.000,12.125,0.000,0.000,34.654
12360,4.182,0.000,3.121,0.000,12.125,0.000,0.000,34.669
12380,4.182,0.000,3.121,0.000,12.125,0.000,0.000,34.712
12400,4.182,0.000,3.121,0.000,12.125,0.000,0.000,34.626
12420,4.182,0.000,3.121,0.000,12.125,0.000,0.000,34.689
12440,4.182,0.000,3.121,0.000,12.125,0.000,0.000,34.674
12460,4.182,0.000,3.121,0.000,12.125,0.000,0.000,34.630
12480,4.182,0.000,3.121,0.000,12.125,0.000,0.000,34.705
12500,4.182,0.000,3.121,0.000,12.125,0.000,0.000,34.651
12520,4.182,0.000,3.121,0.000,12.125,0.000,0.000,34.647
12540,4.182,0.000,3.121,0.000,12.125,0.000,0.000,34.669
12560,4.182,0.000,3.121,0.000,12.125,0.000,0.000,34.653
12580,4.182,0.000,3.121,0.000,12.125,0.000,0.000,34.618
12600,4.182,0.000,3.121,0.000,12.125,0.000,0.000,34.663
12620,4.182,0.000,3.121,0.000,12.125,0.000,0.000,34.690
12640,4.182,0.000,3.121,0.000,12.125,0.000,0.000,34.620
12660,4.182,0.000,3.121,0.000,12.125,0.000,0.000,34.653
12680,4.182,0.000,3.121,0.000,12.125,0.000,0.000,34.656
12700,4.182,0.000,3.121,0.000,12.125,0.000,0.000,34.613
12720,4.182,0.000,3.121,0.000,12.125,0.000,0.000,34.717
12740,4.182,0.000,3.121,0.000,12.125,0.000,0.000,34.701
12760,4.182,0.000,3.121,0.000,12.125,0.000,0.000,34.652
12780,4.182,0.000,3.121,0.000,12.125,0.000,0.000,34.674
12800,4.182,0.000,3.121,0.000,12.125,0.000,0.000,34.669
12820,4.182,0.000,3.121,0.000,12.125,0.000,0.000,34.649
12840,4.182,0.000,3.121,0.000,12.125,0.000,0.000,34.615
12860,4.182,0.000,3.121,0.000,12.125,0.000,0.000,34.619
12880,4.182,0.000,3.121,0.000,12.125,0.000,0.000,34.658
12900,4.181,0.000,3.121,0.000,12.125,0.000,0.000,34.648
12920,4.182,0.000,3.121,0.000,12.125,0.000,0.000,34.635
12940,4.181,0.000,3.121,0.000,12.125,0.000,0.000,34.650
12960,4.182,0.000,3.121,0.000,12.125,0.000,0.000,34.641
12980,4.181,0.000,3.121,0.000,12.125,0.000,0.000,34.644
13000,4.182,0.000,3.121,0.000,12.125,0.000,0.000,34.637
13020,4.181,0.000,3.121,0.000,12.125,0.000,0.000,34.632
13039,3.500,-10.052,3.121,0.017,12.125,0.059,-0.007,34.733
13059,3.383,-10.050,3.121,0.073,12.125,0.251,-0.002,35.754
13079,3.359,-10.050,3.121,0.129,12.125,0.439,-0.001,37.099
13099,3.342,-10.050,3.121,0.184,12.125,0.626,-0.001,38.483
13119,3.327,-10.049,3.121,0.240,12.125,0.812,-0.001,39.860
13139,3.312,-10.049,3.121,0.296,12.125,0.997,-0.001,41.006
13159,3.295,-10.049,3.121,0.352,12.125,1.182,-0.001,42.098
13179,3.277,-10.049,3.121,0.408,12.125,1.365,-0.001,43.158
13199,3.259,-10.049,3.121,0.463,12.125,1.548,-0.001,43.961
13219,3.240,-10.049,3.121,0.519,12.125,1.729,-0.001,44.787
13239,3.220,-10.048,3.121,0.575,12.125,1.909,-0.001,45.554
13259,3.200,-10.048,3.121,0.631,12.125,2.088,-0.001,46.452
13279,3.180,-10.048,3.121,0.687,12.125,2.267,-0.001,46.883
13299,3.159,-10.048,3.121,0.743,12.125,2.443,-0.001,47.579
13319,3.139,-10.048,3.121,0.798,12.125,2.619,-0.001,48.466
13339,3.119,-10.048,3.121,0.854,12.125,2.794,-0.001,49.000
13359,3.099,-10.048,3.121,0.910,12.125,2.967,-0.001,49.486
13379,3.079,-10.048,3.121,0.966,12.125,3.140,-0.001,50.090
13399,3.059,-10.048,3.121,1.022,12.125,3.311,-0.001,50.355
13419,3.040,-10.048,3.121,1.078,12.125,3.481,-0.001,51.083
13439,3.021,-10.048,3.121,1.133,12.125,3.651,-0.001,51.639
13459,3.002,-10.048,3.121,1.189,12.125,3.819,-0.001,51.988
13479,2.984,-10.047,3.121,1.245,12.125,3.986,-0.001,52.576
13499,2.966,-10.048,3.121,1.301,12.125,4.152,-0.001,52.980
13519,2.949,-10.048,3.121,1.357,12.125,4.317,-0.001,53.342
13539,2.932,-10.048,3.121,1.412,12.125,4.481,-0.001,53.894
13559,2.916,-10.048,3.121,1.468,12.125,4.644,-0.001,54.273
13579,2.900,-10.048,3.121,1.524,12.125,4.807,-0.001,54.452
13599,2.884,-10.048,3.121,1.580,12.125,4.968,-0.001,54.868
13619,2.868,-10.047,3.121,1.636,12.125,5.129,-0.001,55.366
13639,2.853,-10.047,3.121,1.692,12.125,5.288,-0.001,55.797
13659,2.837,-10.048,3.121,1.747,12.125,5.447,-0.001,56.017
13679,2.821,-10.047,3.121,1.803,12.125,5.605,-0.001,56.508
13699,2.806,-10.047,3.121,1.859,12.125,5.762,-0.001,56.730
13719,2.790,-10.048,3.121,1.915,12.125,5.918,-0.001,57.093
13739,2.774,-10.047,3.121,1.971,12.125,6.073,-0.001,57.437
13759,2.757,-10.047,3.121,2.026,12.125,6.228,-0.001,57.720
13779,2.741,-10.047,3.121,2.082,12.125,6.381,-0.001,57.983
13799,2.724,-10.047,3.121,2.138,12.125,6.534,-0.001,58.412
13819,2.707,-10.047,3.121,2.194,12.125,6.685,-0.001,58.604
13839,2.690,-10.047,3.121,2.250,12.125,6.836,-0.001,59.099
13859,2.673,-10.047,3.121,2.306,12.125,6.986,-0.001,59.416
13879,2.656,-10.047,3.121,2.361,12.125,7.134,-0.001,59.667
13899,2.638,-10.048,3.121,2.417,12.125,7.282,-0.001,60.098
13919,2.620,-10.047,3.121,2.473,12.125,7.429,-0.001,60.305
13939,2.602,-10.047,3.121,2.529,12.125,7.575,-0.001,60.766
13959,2.584,-10.047,3.121,2.585,12.125,7.719,-0.001,60.977
13979,2.565,-10.047,3.121,2.640,12.125,7.863,-0.001,61.102
13999,2.546,-10.048,3.121,2.696,12.125,8.006,-0.001,61.502
14019,2.526,-10.048,3.121,2.752,12.125,8.147,-0.001,61.965
14039,2.505,-10.047,3.121,2.808,12.125,8.288,-0.001,62.352
14059,3.306,0.000,3.121,2.821,12.125,8.322,0.004,62.049
14079,3.353,0.000,3.121,2.821,12.125,8.322,0.001,60.957
14099,3.366,0.000,3.121,2.821,12.125,8.322,0.000,59.091
14119,3.371,0.000,3.121,2.821,12.125,8.322,0.000,58.054
14139,3.373,0.000,3.121,2.821,12.125,8.322,0.000,56.776
14159,3.374,0.000,3.121,2.821,12.125,8.322,0.000,55.211
14179,3.376,0.000,3.121,2.821,12.125,8.322,0.000,53.847
14199,3.377,0.000,3.121,2.821,12.125,8.322,0.000,52.677
14219,3.378,0.000,3.121,2.821,12.125,8.322,0.000,51.449
14239,3.379,0.000,3.121,2.821,12.125,8.322,0.000,50.388
14259,3.381,0.000,3.121,2.821,12.125,8.322,0.000,49.538
14279,3.383,0.000,3.121,2.821,12.125,8.322,0.000,48.719
14299,3.385,0.000,3.121,2.821,12.125,8.322,0.000,47.893
14319,3.386,0.000,3.121,2.821,12.125,8.322,0.000,47.012
14339,3.388,0.000,3.121,2.821,12.125,8.322,0.000,46.249
14359,3.390,0.000,3.121,2.821,12.125,8.322,0.000,45.532
14379,3.391,0.000,3.121,2.821,12.125,8.322,0.000,44.866
14399,3.393,0.000,3.121,2.821,12.125,8.322,0.000,44.251
14419,3.394,0.000,3.121,2.821,12.125,8.322,0.000,43.689
14439,3.395,0.000,3.121,2.821,12.125,8.322,0.000,43.117
14459,3.396,0.000,3.121,2.821,12.125,8.322,0.000,42.564
14479,3.397,0.000,3.121,2.821,12.125,8.322,0.000,42.115
14499,3.398,0.000,3.121,2.821,12.125,8.322,0.000,41.713
14519,3.398,0.000,3.121,2.821,12.125,8.322,0.000,41.329
14539,3.399,0.000,3.121,2.821,12.125,8.322,0.000,40.870
14559,3.400,0.000,3.121,2.821,12.125,8.322,0.000,40.506
14579,3.400,0.000,3.121,2.821,12.125,8.322,0.000,40.208
14599,3.401,0.000,3.121,2.821,12.125,8.322,0.000,39.920
14619,3.401,0.000,3.121,2.821,12.125,8.322,0.000,39.587
14639,3.401,0.000,3.121,2.821,12.125,8.322,0.000,39.339
14659,3.402,0.000,3.121,2.821,12.125,8.322,0.000,39.079
14679,3.402,0.000,3.121,2.821,12.125,8.322,0.000,38.807
14699,3.402,0.000,3.121,2.821,12.125,8.322,0.000,38.597
14719,3.403,0.000,3.121,2.821,12.125,8.322,0.000,38.338
14739,3.403,0.000,3.121,2.821,12.125,8.322,0.000,38.147
14759,3.403,0.000,3.121,2.821,12.125,8.322,0.000,37.947
14779,3.403,0.000,3.121,2.821,12.125,8.322,0.000,37.777
14799,3.403,0.000,3.121,2.821,12.125,8.322,0.000,37.541
14819,3.403,0.000,3.121,2.821,12.125,8.322,0.000,37.445
14839,3.404,0.000,3.121,2.821,12.125,8.322,0.000,37.261
14859,3.404,0.000,3.121,2.821,12.125,8.322,0.000,37.113
14879,3.404,0.000,3.121,2.821,12.125,8.322,0.000,37.003
14899,3.404,0.000,3.121,2.821,12.125,8.322,0.000,36.859
14919,3.404,0.000,3.121,2.821,12.125,8.322,0.000,36.760
14939,3.404,0.000,3.121,2.821,12.125,8.322,0.000,36.628
14959,3.404,0.000,3.121,2.821,12.125,8.322,0.000,36.537
14979,3.405,0.000,3.121,2.821,12.125,8.322,0.000,36.419
14999,3.405,0.000,3.121,2.821,12.125,8.322,0.000,36.327
15019,3.405,0.000,3.121,2.821,12.125,8.322,0.000,36.261
15039,3.405,0.000,3.121,2.821,12.125,8.322,0.000,36.153
15059,3.405,0.000,3.121,2.821,12.125,8.322,0.000,36.135
15079,3.405,0.000,3.121,2.821,12.125,8.322,0.000,36.004
15099,3.405,0.000,3.121,2.821,12.125,8.322,0.000,35.953
15119,3.405,0.000,3.121,2.821,12.125,8.322,0.000,35.909
15139,3.405,0.000,3.121,2.821,12.125,8.322,0.000,35.822
15159,3.405,0.000,3.121,2.821,12.125,8.322,0.000,35.759
15179,3.405,0.000,3.121,2.821,12.125,8.322,0.000,35.714
15199,3.405,0.000,3.121,2.821,12.125,8.322,0.000,35.657
15219,3.405,0.000,3.121,2.821,12.125,8.322,0.000,35.583
15239,3.405,0.000,3.121,2.821,12.125,8.322,0.000,35.535
15259,3.405,0.000,3.121,2.821,12.125,8.322,0.000,35.487
15279,3.405,0.000,3.121,2.821,12.125,8.322,0.000,35.409
15299,3.405,0.000,3.121,2.821,12.125,8.322,0.000,35.386
15319,3.405,0.000,3.121,2.821,12.125,8.322,0.000,35.401
15339,3.405,0.000,3.121,2.821,12.125,8.322,0.000,35.343
15359,3.405,0.000,3.121,2.821,12.125,8.322,0.000,35.321
15379,3.406,0.000,3.121,2.821,12.125,8.322,0.000,35.238
15399,3.405,0.000,3.121,2.821,12.125,8.322,0.000,35.235
15419,3.405,0.000,3.121,2.821,12.125,8.322,0.000,35.250
15439,3.406,0.000,3.121,2.821,12.125,8.322,0.000,35.162
15459,3.406,0.000,3.121,2.821,12.125,8.322,0.000,35.163
15479,3.406,0.000,3.121,2.821,12.125,8.322,0.000,35.111
15499,3.406,0.000,3.121,2.821,12.125,8.322,0.000,35.108
15519,3.406,0.000,3.121,2.821,12.125,8.322,0.000,35.127
15539,3.406,0.000,3.121,2.821,12.125,8.322,0.000,35.084
15559,3.406,0.000,3.121,2.821,12.125,8.322,0.000,35.054
15579,3.406,0.000,3.121,2.821,12.125,8.322,0.000,35.001
15599,3.406,0.000,3.121,2.821,12.125,8.322,0.000,34.972
15619,3.406,0.000,3.121,2.821,12.125,8.322,0.000,34.999
15639,3.406,0.000,3.121,2.821,12.125,8.322,0.000,35.025
15659,3.406,0.000,3.121,2.821,12.125,8.322,0.000,34.934
15679,3.406,0.000,3.121,2.821,12.125,8.322,0.000,34.918
15699,3.406,0.000,3.121,2.821,12.125,8.322,0.000,34.938
15719,3.406,0.000,3.121,2.821,12.125,8.322,0.000,34.919
15739,3.406,0.000,3.121,2.821,12.125,8.322,0.000,34.917
15759,3.406,0.000,3.121,2.821,12.125,8.322,0.000,34.885
15779,3.406,0.000,3.121,2.821,12.125,8.322,0.000,34.904
15799,3.406,0.000,3.121,2.821,12.125,8.322,0.000,34.871
15819,3.406,0.000,3.121,2.821,12.125,8.322,0.000,34.869
15839,3.406,0.000,3.121,2.821,12.125,8.322,0.000,34.842
15859,3.406,0.000,3.121,2.821,12.125,8.322,0.000,34.816
15879,3.406,0.000,3.121,2.821,12.125,8.322,0.000,34.835
15899,3.406,0.000,3.121,2.821,12.125,8.322,0.000,34.808
15919,3.406,0.000,3.121,2.821,12.125,8.322,0.000,34.852
15939,3.406,0.000,3.121,2.821,12.125,8.322,0.000,34.820
15959,3.406,0.000,3.121,2.821,12.125,8.322,0.000,34.819
15979,3.406,0.000,3.121,2.821,12.125,8.322,0.000,34.791
15999,3.406,0.000,3.121,2.821,12.125,8.322,0.000,34.825
16019,3.406,0.000,3.121,2.821,12.125,8.322,0.000,34.812
16039,3.406,0.000,3.121,2.821,12.125,8.322,0.000,34.806
16059,3.406,0.000,3.121,2.821,12.125,8.322,0.000,34.799
16079,3.406,0.000,3.121,2.821,12.125,8.322,0.000,34.780
16099,3.406,0.000,3.121,2.821,12.125,8.322,0.000,34.783
16119,3.406,0.000,3.121,2.821,12.125,8.322,0.000,34.810
16139,3.406,0.000,3.121,2.821,12.125,8.322,0.000,34.782
16159,3.406,0.000,3.121,2.821,12.125,8.322,0.000,34.824
16179,3.406,0.000,3.121,2.821,12.125,8.322,0.000,34.749
16199,3.406,0.000,3.121,2.821,12.125,8.322,0.000,34.738
16219,3.406,0.000,3.121,2.821,12.125,8.322,0.000,34.761
16239,3.406,0.000,3.121,2.821,12.125,8.322,0.000,34.775
16259,3.406,0.000,3.121,2.821,12.125,8.322,0.000,34.758
16279,3.406,0.000,3.121,2.821,12.125,8.322,0.000,34.740
16299,3.406,0.000,3.121,2.821,12.125,8.322,0.000,34.724
16319,3.406,0.000,3.121,2.821,12.125,8.322,0.000,34.719
16339,3.406,0.000,3.121,2.821,12.125,8.322,0.000,34.736
16359,3.406,0.000,3.121,2.821,12.125,8.322,0.000,34.743
16379,3.406,0.000,3.121,2.821,12.125,8.322,0.000,34.708
16399,3.406,0.000,3.121,2.821,12.125,8.322,0.000,34.693
16419,3.406,0.000,3.121,2.821,12.125,8.322,0.000,34.717
16439,3.406,0.000,3.121,2.821,12.125,8.322,0.000,34.711
16459,3.406,0.000,3.121,2.821,12.125,8.322,0.000,34.782
16479,3.406,0.000,3.121,2.821,12.125,8.322,0.000,34.684
16499,3.406,0.000,3.121,2.821,12.125,8.322,0.000,34.735
16519,3.406,0.000,3.121,2.821,12.125,8.322,0.000,34.705
16539,3.406,0.000,3.121,2.821,12.125,8.322,0.000,34.750
16559,3.406,0.000,3.121,2.821,12.125,8.322,0.000,34.760
16579,3.406,0.000,3.121,2.821,12.125,8.322,0.000,34.743
16599,3.406,0.000,3.121,2.821,12.125,8.322,0.000,34.703
16619,3.406,0.000,3.121,2.821,12.125,8.322,0.000,34.724
16639,3.406,0.000,3.121,2.821,12.125,8.322,0.000,34.679
16659,3.406,0.000,3.121,2.821,12.125,8.322,0.000,34.702
16679,3.406,0.000,3.121,2.821,12.125,8.322,0.000,34.693
16699,3.406,0.000,3.121,2.821,12.125,8.322,0.000,34.701
16719,3.406,0.000,3.121,2.821,12.125,8.322,0.000,34.690
16739,3.406,0.000,3.121,2.821,12.125,8.322,0.000,34.722
16759,3.406,0.000,3.121,2.821,12.125,8.322,0.000,34.675
16779,3.406,0.000,3.121,2.821,12.125,8.322,0.000,34.736
16799,3.406,0.000,3.121,2.821,12.125,8.322,0.000,34.695
16819,3.406,0.000,3.121,2.821,12.125,8.322,0.000,34.663
16839,3.406,0.000,3.121,2.821,12.125,8.322,0.000,34.719
16859,3.406,0.000,3.121,2.821,12.125,8.322,0.000,34.705
16879,3.406,0.000,3.121,2.821,12.125,8.322,0.000,34.681
16899,3.406,0.000,3.121,2.821,12.125,8.322,0.000,34.714
16919,3.406,0.000,3.121,2.821,12.125,8.322,0.000,34.752
16939,3.406,0.000,3.121,2.821,12.125,8.322,0.000,34.685
16959,3.406,0.000,3.121,2.821,12.125,8.322,0.000,34.712
16979,3.406,0.000,3.121,2.821,12.125,8.322,0.000,34.693
16999,3.406,0.000,3.121,2.821,12.125,8.322,0.000,34.666
17019,3.406,0.000,3.121,2.821,12.125,8.322,0.000,34.676
17039,3.406,0.000,3.121,2.821,12.125,8.322,0.000,34.702
17059,3.406,0.000,3.121,2.821,12.125,8.322,0.000,34.695
17079,3.406,0.000,3.121,2.821,12.125,8.322,0.000,34.713
17099,3.406,0.000,3.121,2.821,12.125,8.322,0.000,34.665
17119,3.406,0.000,3.121,2.821,12.125,8.322,0.000,34.662
17139,3.406,0.000,3.121,2.821,12.125,8.322,0.000,34.702
17159,3.406,0.000,3.121,2.821,12.125,8.322,0.000,34.699
17179,3.406,0.000,3.121,2.821,12.125,8.322,0.000,34.699
17199,3.406,0.000,3.121,2.821,12.125,8.322,0.000,34.663
17219,3.406,0.000,3.121,2.821,12.125,8.322,0.000,34.708
17239,3.406,0.000,3.121,2.821,12.125,8.322,0.000,34.686
17259,3.406,0.000,3.121,2.821,12.125,8.322,0.000,34.722
17279,3.406,0.000,3.121,2.821,12.125,8.322,0.000,34.717
17299,3.406,0.000,3.121,2.821,12.125,8.322,0.000,34.673
17319,3.406,0.000,3.121,2.821,12.125,8.322,0.000,34.721
17339,3.406,0.000,3.121,2.821,12.125,8.322,0.000,34.729
17359,3.406,0.000,3.121,2.821,12.125,8.322,0.000,34.650
17379,3.406,0.000,3.121,2.821,12.125,8.322,0.000,34.666
17399,3.406,0.000,3.121,2.821,12.125,8.322,0.000,34.722
17419,3.406,0.000,3.121,2.821,12.125,8.322,0.000,34.653
17439,3.406,0.000,3.121,2.821,12.125,8.322,0.000,34.664
17459,3.406,0.000,3.121,2.821,12.125,8.322,0.000,34.668
17479,3.406,0.000,3.121,2.821,12.125,8.322,0.000,34.701
17499,3.406,0.000,3.121,2.821,12.125,8.322,0.000,34.684
17519,3.406,0.000,3.121,2.821,12.125,8.322,0.000,34.682
17539,3.406,0.000,3.121,2.821,12.125,8.322,0.000,34.695
17559,3.406,0.000,3.121,2.821,12.125,8.322,0.000,34.713
17579,3.406,0.000,3.121,2.821,12.125,8.322,0.000,34.665
17599,3.406,0.000,3.121,2.821,12.125,8.322,0.000,34.678
17619,3.406,0.000,3.121,2.821,12.125,8.322,0.000,34.701
17639,3.406,0.000,3.121,2.821,12.125,8.322,0.000,34.660
17644,3.406,0.000,3.121,2.821,12.125,8.322,0.000,34.661