File: data/T35/3C/3.csv
time_s,voltage_v,current_a,chargecapacity_ah,dischargecapacity_ah,charge_energy_wh,discharge_energy_wh,voltagedot_v_per_s,temp_degc
1,3.332,0.000,0.000,0.000,0.000,0.000,0.000,34.513
21,3.332,0.000,0.000,0.000,0.000,0.000,0.000,34.521
41,3.332,0.000,0.000,0.000,0.000,0.000,0.000,34.537
60,3.332,0.000,0.000,0.000,0.000,0.000,0.000,34.504
80,3.528,1.625,0.009,0.000,0.032,0.000,0.001,34.570
100,3.534,1.625,0.018,0.000,0.064,0.000,0.000,34.596
120,3.538,1.625,0.027,0.000,0.096,0.000,0.000,34.694
140,3.540,1.625,0.036,0.000,0.128,0.000,0.000,34.743
160,3.543,1.625,0.045,0.000,0.160,0.000,0.000,34.833
180,3.546,1.625,0.054,0.000,0.192,0.000,0.000,34.833
200,3.549,1.625,0.063,0.000,0.224,0.000,0.000,34.925
220,3.551,1.625,0.072,0.000,0.256,0.000,0.000,34.973
240,3.554,1.625,0.081,0.000,0.288,0.000,0.000,35.024
260,3.557,1.625,0.090,0.000,0.320,0.000,0.000,35.072
280,3.559,1.625,0.099,0.000,0.352,0.000,0.000,35.138
300,3.562,1.625,0.108,0.000,0.384,0.000,0.000,35.127
320,3.564,1.625,0.117,0.000,0.416,0.000,0.000,35.202
340,3.567,1.625,0.126,0.000,0.448,0.000,0.000,35.242
360,3.569,1.625,0.135,0.000,0.481,0.000,0.000,35.227
380,3.572,1.625,0.144,0.000,0.513,0.000,0.000,35.289
400,3.574,1.625,0.153,0.000,0.545,0.000,0.000,35.346
420,3.577,1.625,0.163,0.000,0.577,0.000,0.000,35.393
440,3.579,1.625,0.172,0.000,0.610,0.000,0.000,35.363
460,3.582,1.625,0.181,0.000,0.642,0.000,0.000,35.412
480,3.584,1.625,0.190,0.000,0.674,0.000,0.000,35.441
500,3.587,1.625,0.199,0.000,0.707,0.000,0.000,35.460
520,3.589,1.625,0.208,0.000,0.739,0.000,0.000,35.446
540,3.592,1.625,0.217,0.000,0.772,0.000,0.000,35.508
560,3.594,1.625,0.226,0.000,0.804,0.000,0.000,35.484
580,3.597,1.625,0.235,0.000,0.836,0.000,0.000,35.506
600,3.599,1.625,0.244,0.000,0.869,0.000,0.000,35.557
620,3.602,1.625,0.253,0.000,0.902,0.000,0.000,35.538
640,3.605,1.625,0.262,0.000,0.934,0.000,0.000,35.575
660,3.607,1.625,0.271,0.000,0.967,0.000,0.000,35.556
680,3.610,1.625,0.280,0.000,0.999,0.000,0.000,35.566
700,3.613,1.625,0.289,0.000,1.032,0.000,0.000,35.567
720,3.615,1.625,0.298,0.000,1.064,0.000,0.000,35.580
740,3.618,1.625,0.307,0.000,1.097,0.000,0.000,35.584
760,3.621,1.625,0.316,0.000,1.130,0.000,0.000,35.570
780,3.624,1.625,0.325,0.000,1.162,0.000,0.000,35.570
800,3.627,1.625,0.334,0.000,1.195,0.000,0.000,35.545
820,3.629,1.625,0.343,0.000,1.228,0.000,0.000,35.592
840,3.632,1.625,0.352,0.000,1.261,0.000,0.000,35.573
860,3.635,1.625,0.361,0.000,1.294,0.000,0.000,35.552
880,3.637,1.625,0.370,0.000,1.326,0.000,0.000,35.551
900,3.640,1.625,0.379,0.000,1.359,0.000,0.000,35.584
920,3.642,1.625,0.388,0.000,1.392,0.000,0.000,35.570
940,3.644,1.625,0.397,0.000,1.425,0.000,0.000,35.551
960,3.647,1.625,0.406,0.000,1.458,0.000,0.000,35.584
980,3.649,1.625,0.415,0.000,1.491,0.000,0.000,35.555
1000,3.651,1.625,0.424,0.000,1.524,0.000,0.000,35.526
1020,3.654,1.625,0.433,0.000,1.557,0.000,0.000,35.554
1040,3.656,1.625,0.442,0.000,1.590,0.000,0.000,35.517
1060,3.658,1.625,0.451,0.000,1.623,0.000,0.000,35.518
1080,3.660,1.625,0.460,0.000,1.656,0.000,0.000,35.482
1100,3.661,1.625,0.470,0.000,1.689,0.000,0.000,35.507
1120,3.663,1.625,0.479,0.000,1.722,0.000,0.000,35.550
1140,3.665,1.625,0.488,0.000,1.755,0.000,0.000,35.484
1160,3.667,1.625,0.497,0.000,1.788,0.000,0.000,35.519
1180,3.668,1.625,0.506,0.000,1.821,0.000,0.000,35.490
1200,3.670,1.625,0.515,0.000,1.854,0.000,0.000,35.472
1220,3.672,1.625,0.524,0.000,1.888,0.000,0.000,35.505
1240,3.673,1.625,0.533,0.000,1.921,0.000,0.000,35.535
1260,3.675,1.625,0.542,0.000,1.954,0.000,0.000,35.475
1280,3.677,1.625,0.551,0.000,1.987,0.000,0.000,35.490
1300,3.678,1.625,0.560,0.000,2.020,0.000,0.000,35.497
1320,3.680,1.625,0.569,0.000,2.053,0.000,0.000,35.523
1340,3.682,1.625,0.578,0.000,2.087,0.000,0.000,35.546
1360,3.683,1.625,0.587,0.000,2.120,0.000,0.000,35.519
1380,3.685,1.625,0.596,0.000,2.153,0.000,0.000,35.533
1400,3.687,1.625,0.605,0.000,2.187,0.000,0.000,35.520
1420,3.689,1.625,0.614,0.000,2.220,0.000,0.000,35.521
1440,3.690,1.625,0.623,0.000,2.253,0.000,0.000,35.524
1460,3.692,1.625,0.632,0.000,2.286,0.000,0.000,35.577
1480,3.694,1.625,0.641,0.000,2.320,0.000,0.000,35.523
1500,3.696,1.625,0.650,0.000,2.353,0.000,0.000,35.534
1520,3.697,1.625,0.659,0.000,2.387,0.000,0.000,35.562
1540,3.699,1.625,0.668,0.000,2.420,0.000,0.000,35.540
1560,3.701,1.625,0.677,0.000,2.453,0.000,0.000,35.550
1580,3.702,1.625,0.686,0.000,2.487,0.000,0.000,35.593
1600,3.704,1.625,0.695,0.000,2.520,0.000,0.000,35.524
1620,3.706,1.625,0.704,0.000,2.554,0.000,0.000,35.561
1640,3.708,1.625,0.713,0.000,2.587,0.000,0.000,35.597
1660,3.710,1.625,0.722,0.000,2.621,0.000,0.000,35.583
1680,3.711,1.625,0.731,0.000,2.654,0.000,0.000,35.569
1700,3.713,1.625,0.740,0.000,2.688,0.000,0.000,35.584
1720,3.715,1.625,0.749,0.000,2.721,0.000,0.000,35.591
1740,3.717,1.625,0.758,0.000,2.755,0.000,0.000,35.560
1760,3.719,1.625,0.767,0.000,2.788,0.000,0.000,35.631
1780,3.721,1.625,0.777,0.000,2.822,0.000,0.000,35.636
1800,3.722,1.625,0.786,0.000,2.855,0.000,0.000,35.622
1820,3.724,1.625,0.795,0.000,2.889,0.000,0.000,35.630
1840,3.726,1.625,0.804,0.000,2.923,0.000,0.000,35.626
1860,3.728,1.625,0.813,0.000,2.956,0.000,0.000,35.657
1880,3.730,1.625,0.822,0.000,2.990,0.000,0.000,35.638
1900,3.732,1.625,0.831,0.000,3.024,0.000,0.000,35.694
1920,3.733,1.625,0.840,0.000,3.057,0.000,0.000,35.651
1940,3.735,1.625,0.849,0.000,3.091,0.000,0.000,35.704
1960,3.737,1.625,0.858,0.000,3.125,0.000,0.000,35.693
1980,3.739,1.625,0.867,0.000,3.159,0.000,0.000,35.702
2000,3.741,1.625,0.876,0.000,3.192,0.000,0.000,35.704
2020,3.743,1.625,0.885,0.000,3.226,0.000,0.000,35.686
2040,3.744,1.625,0.894,0.000,3.260,0.000,0.000,35.711
2060,3.746,1.625,0.903,0.000,3.294,0.000,0.000,35.736
2080,3.748,1.625,0.912,0.000,3.328,0.000,0.000,35.763
2100,3.750,1.625,0.921,0.000,3.361,0.000,0.000,35.759
2120,3.752,1.625,0.930,0.000,3.395,0.000,0.000,35.781
2140,3.753,1.625,0.939,0.000,3.429,0.000,0.000,35.740
2160,3.755,1.625,0.948,0.000,3.463,0.000,0.000,35.773
2180,3.757,1.625,0.957,0.000,3.497,0.000,0.000,35.794
2200,3.759,1.625,0.966,0.000,3.531,0.000,0.000,35.743
2220,3.760,1.625,0.975,0.000,3.565,0.000,0.000,35.735
2240,3.762,1.625,0.984,0.000,3.599,0.000,0.000,35.752
2260,3.764,1.625,0.993,0.000,3.633,0.000,0.000,35.787
2280,3.766,1.625,1.002,0.000,3.667,0.000,0.000,35.843
2300,3.767,1.625,1.011,0.000,3.701,0.000,0.000,35.843
2320,3.769,1.625,1.020,0.000,3.735,0.000,0.000,35.776
2340,3.770,1.625,1.029,0.000,3.769,0.000,0.000,35.844
2360,3.772,1.625,1.038,0.000,3.803,0.000,0.000,35.792
2380,3.774,1.625,1.047,0.000,3.837,0.000,0.000,35.842
2400,3.775,1.625,1.056,0.000,3.871,0.000,0.000,35.817
2420,3.777,1.625,1.065,0.000,3.905,0.000,0.000,35.847
2440,3.779,1.625,1.074,0.000,3.939,0.000,0.000,35.860
2460,3.780,1.625,1.084,0.000,3.973,0.000,0.000,35.830
2480,3.782,1.625,1.093,0.000,4.008,0.000,0.000,35.831
2500,3.784,1.625,1.102,0.000,4.042,0.000,0.000,35.903
2520,3.785,1.625,1.111,0.000,4.076,0.000,0.000,35.849
2540,3.787,1.625,1.120,0.000,4.110,0.000,0.000,35.868
2560,3.789,1.625,1.129,0.000,4.144,0.000,0.000,35.864
2580,3.790,1.625,1.138,0.000,4.179,0.000,0.000,35.887
2600,3.792,1.625,1.147,0.000,4.213,0.000,0.000,35.906
2620,3.794,1.625,1.156,0.000,4.247,0.000,0.000,35.874
2640,3.795,1.625,1.165,0.000,4.281,0.000,0.000,35.909
2660,3.797,1.625,1.174,0.000,4.316,0.000,0.000,35.874
2680,3.799,1.625,1.183,0.000,4.350,0.000,0.000,35.899
2700,3.801,1.625,1.192,0.000,4.384,0.000,0.000,35.910
2720,3.802,1.625,1.201,0.000,4.418,0.000,0.000,35.927
2740,3.804,1.625,1.210,0.000,4.453,0.000,0.000,35.912
2760,3.806,1.625,1.219,0.000,4.487,0.000,0.000,35.911
2780,3.808,1.625,1.228,0.000,4.522,0.000,0.000,35.891
2800,3.809,1.625,1.237,0.000,4.556,0.000,0.000,35.885
2820,3.811,1.625,1.246,0.000,4.590,0.000,0.000,35.909
2840,3.813,1.625,1.255,0.000,4.625,0.000,0.000,35.906
2860,3.815,1.625,1.264,0.000,4.659,0.000,0.000,35.852
2880,3.817,1.625,1.273,0.000,4.694,0.000,0.000,35.912
2900,3.818,1.625,1.282,0.000,4.728,0.000,0.000,35.883
2920,3.820,1.625,1.291,0.000,4.763,0.000,0.000,35.966
2940,3.822,1.625,1.300,0.000,4.797,0.000,0.000,35.910
2960,3.824,1.625,1.309,0.000,4.832,0.000,0.000,35.930
2980,3.826,1.625,1.318,0.000,4.866,0.000,0.000,35.922
3000,3.828,1.625,1.327,0.000,4.901,0.000,0.000,35.919
3020,3.829,1.625,1.336,0.000,4.935,0.000,0.000,35.901
3040,3.831,1.625,1.345,0.000,4.970,0.000,0.000,35.917
3060,3.833,1.625,1.354,0.000,5.004,0.000,0.000,35.919
3080,3.835,1.625,1.363,0.000,5.039,0.000,0.000,35.922
3100,3.837,1.625,1.372,0.000,5.074,0.000,0.000,35.922
3120,3.839,1.625,1.381,0.000,5.108,0.000,0.000,35.927
3140,3.841,1.625,1.390,0.000,5.143,0.000,0.000,35.928
3160,3.843,1.625,1.400,0.000,5.178,0.000,0.000,35.957
3180,3.845,1.625,1.409,0.000,5.212,0.000,0.000,35.929
3200,3.847,1.625,1.418,0.000,5.247,0.000,0.000,35.957
3220,3.849,1.625,1.427,0.000,5.282,0.000,0.000,35.959
3240,3.851,1.625,1.436,0.000,5.317,0.000,0.000,35.906
3260,3.853,1.625,1.445,0.000,5.351,0.000,0.000,35.959
3280,3.856,1.625,1.454,0.000,5.386,0.000,0.000,35.950
3300,3.858,1.625,1.463,0.000,5.421,0.000,0.000,35.949
3320,3.860,1.625,1.472,0.000,5.456,0.000,0.000,35.947
3340,3.862,1.625,1.481,0.000,5.491,0.000,0.000,35.962
3360,3.864,1.625,1.490,0.000,5.526,0.000,0.000,35.960
3380,3.867,1.625,1.499,0.000,5.561,0.000,0.000,35.961
3400,3.869,1.625,1.508,0.000,5.595,0.000,0.000,35.966
3420,3.871,1.625,1.517,0.000,5.630,0.000,0.000,35.943
3440,3.873,1.625,1.526,0.000,5.665,0.000,0.000,35.975
3460,3.876,1.625,1.535,0.000,5.700,0.000,0.000,35.971
3480,3.878,1.625,1.544,0.000,5.735,0.000,0.000,35.973
3500,3.880,1.625,1.553,0.000,5.770,0.000,0.000,35.970
3520,3.883,1.625,1.562,0.000,5.805,0.000,0.000,35.944
3540,3.885,1.625,1.571,0.000,5.841,0.000,0.000,35.947
3560,3.887,1.625,1.580,0.000,5.876,0.000,0.000,35.940
3580,3.890,1.625,1.589,0.000,5.911,0.000,0.000,35.967
3600,3.892,1.625,1.598,0.000,5.946,0.000,0.000,35.980
3620,3.895,1.625,1.607,0.000,5.981,0.000,0.000,35.963
3640,3.897,1.625,1.616,0.000,6.016,0.000,0.000,35.963
3660,3.900,1.625,1.625,0.000,6.051,0.000,0.000,35.984
3680,3.902,1.625,1.634,0.000,6.087,0.000,0.000,35.965
3700,3.905,1.625,1.643,0.000,6.122,0.000,0.000,35.961
3720,3.907,1.625,1.652,0.000,6.157,0.000,0.000,35.996
3740,3.909,1.625,1.661,0.000,6.192,0.000,0.000,35.990
3760,3.912,1.625,1.670,0.000,6.228,0.000,0.000,35.962
3780,3.914,1.625,1.679,0.000,6.263,0.000,0.000,35.966
3800,3.917,1.625,1.688,0.000,6.298,0.000,0.000,35.998
3820,3.919,1.625,1.697,0.000,6.334,0.000,0.000,35.942
3840,3.922,1.625,1.707,0.000,6.369,0.000,0.000,35.928
3860,3.925,1.625,1.716,0.000,6.405,0.000,0.000,35.920
3880,3.927,1.625,1.725,0.000,6.440,0.000,0.000,35.929
3900,3.929,1.625,1.734,0.000,6.476,0.000,0.000,35.949
3920,3.932,1.625,1.743,0.000,6.511,0.000,0.000,35.951
3940,3.935,1.625,1.752,0.000,6.547,0.000,0.000,35.945
3960,3.937,1.625,1.761,0.000,6.582,0.000,0.000,35.941
3980,3.940,1.625,1.770,0.000,6.618,0.000,0.000,35.988
4000,3.942,1.625,1.779,0.000,6.653,0.000,0.000,35.956
4020,3.945,1.625,1.788,0.000,6.689,0.000,0.000,35.952
4040,3.947,1.625,1.797,0.000,6.724,0.000,0.000,35.977
4060,3.950,1.625,1.806,0.000,6.760,0.000,0.000,35.940
4080,3.953,1.625,1.815,0.000,6.796,0.000,0.000,35.999
4100,3.955,1.625,1.824,0.000,6.831,0.000,0.000,35.987
4120,3.958,1.625,1.833,0.000,6.867,0.000,0.000,35.989
4140,3.961,1.625,1.842,0.000,6.903,0.000,0.000,35.921
4160,3.963,1.625,1.851,0.000,6.939,0.000,0.000,35.961
4180,3.966,1.625,1.860,0.000,6.975,0.000,0.000,35.944
4200,3.968,1.625,1.869,0.000,7.010,0.000,0.000,35.935
4220,3.971,1.625,1.878,0.000,7.046,0.000,0.000,35.972
4240,3.973,1.625,1.887,0.000,7.082,0.000,0.000,35.924
4260,3.976,1.625,1.896,0.000,7.118,0.000,0.000,35.953
4280,3.979,1.625,1.905,0.000,7.154,0.000,0.000,35.923
4300,3.981,1.625,1.914,0.000,7.190,0.000,0.000,35.887
4320,3.984,1.625,1.923,0.000,7.226,0.000,0.000,35.934
4340,3.986,1.625,1.932,0.000,7.262,0.000,0.000,35.930
4360,3.989,1.625,1.941,0.000,7.298,0.000,0.000,35.933
4380,3.991,1.625,1.950,0.000,7.334,0.000,0.000,35.926
4400,3.994,1.625,1.959,0.000,7.370,0.000,0.000,35.909
4420,3.997,1.625,1.968,0.000,7.406,0.000,0.000,35.902
4440,3.999,1.625,1.977,0.000,7.442,0.000,0.000,35.879
4460,4.002,1.625,1.986,0.000,7.478,0.000,0.000,35.868
4480,4.004,1.625,1.995,0.000,7.514,0.000,0.000,35.892
4500,4.007,1.625,2.004,0.000,7.550,0.000,0.000,35.846
4520,4.009,1.625,2.014,0.000,7.587,0.000,0.000,35.854
4540,4.012,1.625,2.023,0.000,7.623,0.000,0.000,35.872
4560,4.014,1.625,2.032,0.000,7.659,0.000,0.000,35.928
4580,4.017,1.625,2.041,0.000,7.695,0.000,0.000,35.874
4600,4.019,1.625,2.050,0.000,7.732,0.000,0.000,35.871
4620,4.022,1.625,2.059,0.000,7.768,0.000,0.000,35.886
4640,4.025,1.625,2.068,0.000,7.804,0.000,0.000,35.888
4660,4.027,1.625,2.077,0.000,7.841,0.000,0.000,35.862
4680,4.030,1.625,2.086,0.000,7.877,0.000,0.000,35.885
4700,4.032,1.625,2.095,0.000,7.913,0.000,0.000,35.856
4720,4.035,1.625,2.104,0.000,7.950,0.000,0.000,35.833
4740,4.037,1.625,2.113,0.000,7.986,0.000,0.000,35.829
4760,4.040,1.625,2.122,0.000,8.023,0.000,0.000,35.852
4780,4.042,1.625,2.131,0.000,8.059,0.000,0.000,35.842
4800,4.045,1.625,2.140,0.000,8.096,0.000,0.000,35.833
4820,4.047,1.625,2.149,0.000,8.132,0.000,0.000,35.825
4840,4.050,1.625,2.158,0.000,8.169,0.000,0.000,35.860
4860,4.052,1.625,2.167,0.000,8.205,0.000,0.000,35.862
4880,4.055,1.625,2.176,0.000,8.242,0.000,0.000,35.883
4900,4.057,1.625,2.185,0.000,8.279,0.000,0.000,35.829
4920,4.060,1.625,2.194,0.000,8.315,0.000,0.000,35.846
4940,4.062,1.625,2.203,0.000,8.352,0.000,0.000,35.836
4960,4.065,1.625,2.212,0.000,8.389,0.000,0.000,35.881
4980,4.068,1.625,2.221,0.000,8.425,0.000,0.000,35.838
5000,4.070,1.625,2.230,0.000,8.462,0.000,0.000,35.866
5020,4.073,1.625,2.239,0.000,8.499,0.000,0.000,35.841
5040,4.075,1.625,2.248,0.000,8.536,0.000,0.000,35.849
5060,4.078,1.625,2.257,0.000,8.572,0.000,0.000,35.863
5080,4.081,1.625,2.266,0.000,8.609,0.000,0.000,35.847
5100,4.083,1.625,2.275,0.000,8.646,0.000,0.000,35.840
5120,4.086,1.625,2.284,0.000,8.683,0.000,0.000,35.878
5140,4.089,1.625,2.293,0.000,8.720,0.000,0.000,35.857
5160,4.091,1.625,2.302,0.000,8.757,0.000,0.000,35.812
5180,4.094,1.625,2.311,0.000,8.794,0.000,0.000,35.847
5200,4.097,1.625,2.320,0.000,8.831,0.000,0.000,35.843
5220,4.100,1.625,2.330,0.000,8.868,0.000,0.000,35.864
5240,4.102,1.625,2.339,0.000,8.905,0.000,0.000,35.887
5260,4.105,1.625,2.348,0.000,8.942,0.000,0.000,35.911
5280,4.108,1.625,2.357,0.000,8.979,0.000,0.000,35.894
5300,4.111,1.625,2.366,0.000,9.016,0.000,0.000,35.899
5320,4.114,1.625,2.375,0.000,9.053,0.000,0.000,35.910
5340,4.117,1.625,2.384,0.000,9.090,0.000,0.000,35.892
5360,4.120,1.625,2.393,0.000,9.127,0.000,0.000,35.892
5380,4.123,1.625,2.402,0.000,9.165,0.000,0.000,35.890
5400,4.126,1.625,2.411,0.000,9.202,0.000,0.000,35.923
5420,4.129,1.625,2.420,0.000,9.239,0.000,0.000,35.885
5440,4.132,1.625,2.429,0.000,9.276,0.000,0.000,35.915
5460,4.136,1.625,2.438,0.000,9.314,0.000,0.000,35.921
5480,4.139,1.625,2.447,0.000,9.351,0.000,0.000,35.930
5500,4.142,1.625,2.456,0.000,9.389,0.000,0.000,35.894
5520,4.145,1.625,2.465,0.000,9.426,0.000,0.000,35.914
5540,4.148,1.625,2.474,0.000,9.463,0.000,0.000,35.971
5560,4.152,1.625,2.483,0.000,9.501,0.000,0.000,35.963
5580,4.155,1.625,2.492,0.000,9.538,0.000,0.000,35.960
5600,4.159,1.625,2.501,0.000,9.576,0.000,0.000,35.991
5620,4.162,1.625,2.510,0.000,9.613,0.000,0.000,35.948
5640,4.165,1.625,2.519,0.000,9.651,0.000,0.000,35.979
5660,4.169,1.625,2.528,0.000,9.689,0.000,0.000,35.938
5680,4.172,1.625,2.537,0.000,9.726,0.000,0.000,35.989
5700,4.176,1.625,2.546,0.000,9.764,0.000,0.000,35.980
5720,4.179,1.625,2.555,0.000,9.802,0.000,0.000,35.966
5740,4.183,1.625,2.564,0.000,9.840,0.000,0.000,35.972
5760,4.187,1.625,2.573,0.000,9.877,0.000,0.000,35.974
5780,4.190,1.625,2.582,0.000,9.915,0.000,0.000,35.967
5800,4.194,1.625,2.591,0.000,9.953,0.000,0.000,36.017
5820,4.197,1.625,2.600,0.000,9.991,0.000,0.000,36.007
5840,4.200,1.613,2.609,0.000,10.029,0.000,0.000,36.020
5860,4.200,1.570,2.618,0.000,10.066,0.000,0.000,36.016
5880,4.200,1.533,2.627,0.000,10.102,0.000,0.000,36.012
5900,4.200,1.499,2.635,0.000,10.137,0.000,0.000,36.019
5920,4.200,1.469,2.643,0.000,10.172,0.000,0.000,36.022
5940,4.200,1.440,2.652,0.000,10.206,0.000,0.000,35.971
5960,4.200,1.411,2.659,0.000,10.239,0.000,0.000,36.033
5980,4.200,1.384,2.667,0.000,10.272,0.000,0.000,35.991
6000,4.200,1.358,2.675,0.000,10.304,0.000,0.000,35.980
6020,4.200,1.334,2.682,0.000,10.335,0.000,0.000,35.970
6040,4.200,1.309,2.690,0.000,10.366,0.000,0.000,35.939
6060,4.200,1.284,2.697,0.000,10.396,0.000,0.000,35.909
6080,4.200,1.261,2.704,0.000,10.426,0.000,0.000,35.971
6100,4.200,1.239,2.711,0.000,10.455,0.000,0.000,35.876
6120,4.200,1.217,2.718,0.000,10.484,0.000,0.000,35.908
6140,4.200,1.195,2.724,0.000,10.512,0.000,0.000,35.896
6160,4.200,1.174,2.731,0.000,10.539,0.000,0.000,35.858
6180,4.200,1.155,2.737,0.000,10.566,0.000,0.000,35.814
6200,4.200,1.134,2.744,0.000,10.593,0.000,0.000,35.803
6220,4.200,1.115,2.750,0.000,10.619,0.000,0.000,35.817
6240,4.200,1.097,2.756,0.000,10.645,0.000,0.000,35.791
6260,4.200,1.079,2.762,0.000,10.671,0.000,0.000,35.814
6280,4.200,1.061,2.768,0.000,10.696,0.000,0.000,35.713
6300,4.200,1.044,2.774,0.000,10.720,0.000,0.000,35.735
6320,4.200,1.028,2.780,0.000,10.744,0.000,0.000,35.728
6340,4.200,1.012,2.785,0.000,10.768,0.000,0.000,35.660
6360,4.200,0.995,2.791,0.000,10.791,0.000,0.000,35.603
6380,4.200,0.980,2.797,0.000,10.815,0.000,0.000,35.625
6400,4.200,0.965,2.802,0.000,10.837,0.000,0.000,35.612
6420,4.200,0.951,2.807,0.000,10.860,0.000,0.000,35.595
6440,4.200,0.937,2.812,0.000,10.882,0.000,0.000,35.560
6460,4.200,0.923,2.818,0.000,10.903,0.000,0.000,35.585
6480,4.200,0.910,2.823,0.000,10.925,0.000,0.000,35.527
6500,4.200,0.897,2.828,0.000,10.946,0.000,0.000,35.486
6520,4.200,0.884,2.833,0.000,10.966,0.000,0.000,35.529
6540,4.200,0.871,2.838,0.000,10.987,0.000,0.000,35.477
6560,4.200,0.859,2.842,0.000,11.007,0.000,0.000,35.445
6580,4.200,0.847,2.847,0.000,11.027,0.000,0.000,35.430
6600,4.200,0.835,2.852,0.000,11.047,0.000,0.000,35.457
6620,4.200,0.823,2.856,0.000,11.066,0.000,0.000,35.401
6640,4.200,0.812,2.861,0.000,11.085,0.000,0.000,35.437
6660,4.200,0.802,2.865,0.000,11.104,0.000,0.000,35.383
6680,4.200,0.790,2.870,0.000,11.122,0.000,0.000,35.376
6700,4.200,0.780,2.874,0.000,11.141,0.000,0.000,35.331
6720,4.200,0.769,2.878,0.000,11.159,0.000,0.000,35.362
6740,4.200,0.759,2.883,0.000,11.177,0.000,0.000,35.358
6760,4.200,0.748,2.887,0.000,11.194,0.000,0.000,35.332
6780,4.200,0.739,2.891,0.000,11.211,0.000,0.000,35.319
6800,4.200,0.728,2.895,0.000,11.229,0.000,0.000,35.306
6820,4.200,0.719,2.899,0.000,11.245,0.000,0.000,35.320
6840,4.200,0.709,2.903,0.000,11.262,0.000,0.000,35.286
6860,4.200,0.699,2.907,0.000,11.279,0.000,0.000,35.274
6880,4.200,0.690,2.911,0.000,11.295,0.000,0.000,35.262
6900,4.200,0.681,2.915,0.000,11.311,0.000,0.000,35.232
6920,4.200,0.672,2.918,0.000,11.327,0.000,0.000,35.247
6940,4.200,0.663,2.922,0.000,11.342,0.000,0.000,35.244
6960,4.200,0.654,2.926,0.000,11.357,0.000,0.000,35.165
6980,4.200,0.645,2.929,0.000,11.373,0.000,0.000,35.126
7000,4.200,0.636,2.933,0.000,11.388,0.000,0.000,35.153
7020,4.200,0.628,2.936,0.000,11.402,0.000,0.000,35.140
7040,4.200,0.619,2.940,0.000,11.417,0.000,0.000,35.152
7060,4.200,0.611,2.943,0.000,11.431,0.000,0.000,35.126
7080,4.200,0.602,2.947,0.000,11.445,0.000,0.000,35.095
7100,4.200,0.594,2.950,0.000,11.459,0.000,0.000,35.120
7120,4.200,0.586,2.953,0.000,11.473,0.000,0.000,35.102
7140,4.200,0.578,2.957,0.000,11.487,0.000,0.000,35.061
7160,4.200,0.570,2.960,0.000,11.500,0.000,0.000,35.066
7180,4.200,0.562,2.963,0.000,11.513,0.000,0.000,35.084
7200,4.200,0.555,2.966,0.000,11.526,0.000,0.000,35.057
7220,4.200,0.546,2.969,0.000,11.539,0.000,0.000,35.046
7240,4.200,0.538,2.972,0.000,11.552,0.000,0.000,35.046
7260,4.200,0.531,2.975,0.000,11.564,0.000,0.000,35.022
7280,4.200,0.524,2.978,0.000,11.576,0.000,0.000,35.013
7300,4.200,0.516,2.981,0.000,11.589,0.000,0.000,34.994
7320,4.200,0.509,2.984,0.000,11.601,0.000,0.000,35.008
7340,4.200,0.502,2.986,0.000,11.612,0.000,0.000,34.989
7360,4.200,0.494,2.989,0.000,11.624,0.000,0.000,35.057
7380,4.200,0.487,2.992,0.000,11.635,0.000,0.000,34.965
7400,4.200,0.479,2.995,0.000,11.647,0.000,0.000,34.995
7420,4.200,0.473,2.997,0.000,11.658,0.000,0.000,34.943
7440,4.200,0.466,3.000,0.000,11.669,0.000,0.000,34.943
7460,4.200,0.459,3.002,0.000,11.680,0.000,0.000,34.967
7480,4.200,0.452,3.005,0.000,11.690,0.000,0.000,34.924
7500,4.200,0.445,3.007,0.000,11.701,0.000,0.000,34.937
7520,4.200,0.438,3.010,0.000,11.711,0.000,0.000,34.942
7540,4.200,0.432,3.012,0.000,11.721,0.000,0.000,34.908
7560,4.200,0.425,3.015,0.000,11.731,0.000,0.000,34.917
7580,4.200,0.418,3.017,0.000,11.741,0.000,0.000,34.880
7600,4.200,0.412,3.019,0.000,11.751,0.000,0.000,34.904
7620,4.200,0.405,3.022,0.000,11.760,0.000,0.000,34.932
7640,4.200,0.399,3.024,0.000,11.769,0.000,0.000,34.892
7660,4.200,0.393,3.026,0.000,11.779,0.000,0.000,34.898
7680,4.200,0.387,3.028,0.000,11.788,0.000,0.000,34.885
7700,4.200,0.381,3.030,0.000,11.797,0.000,0.000,34.911
7720,4.200,0.374,3.032,0.000,11.806,0.000,0.000,34.859
7740,4.200,0.368,3.035,0.000,11.814,0.000,0.000,34.879
7760,4.200,0.363,3.037,0.000,11.823,0.000,0.000,34.844
7780,4.200,0.356,3.039,0.000,11.831,0.000,0.000,34.865
7800,4.200,0.351,3.041,0.000,11.839,0.000,0.000,34.844
7820,4.200,0.344,3.042,0.000,11.847,0.000,0.000,34.836
7840,4.200,0.339,3.044,0.000,11.855,0.000,0.000,34.869
7860,4.200,0.333,3.046,0.000,11.863,0.000,0.000,34.836
7880,4.200,0.328,3.048,0.000,11.871,0.000,0.000,34.834
7900,4.200,0.322,3.050,0.000,11.879,0.000,0.000,34.817
7920,4.200,0.317,3.052,0.000,11.886,0.000,0.000,34.826
7940,4.200,0.311,3.053,0.000,11.893,0.000,0.000,34.836
7960,4.200,0.306,3.055,0.000,11.901,0.000,0.000,34.782
7980,4.200,0.301,3.057,0.000,11.908,0.000,0.000,34.776
8000,4.200,0.296,3.058,0.000,11.915,0.000,0.000,34.813
8020,4.200,0.291,3.060,0.000,11.921,0.000,0.000,34.786
8040,4.200,0.286,3.062,0.000,11.928,0.000,0.000,34.801
8060,4.200,0.281,3.063,0.000,11.935,0.000,0.000,34.782
8080,4.200,0.276,3.065,0.000,11.941,0.000,0.000,34.769
8100,4.200,0.271,3.066,0.000,11.948,0.000,0.000,34.748
8120,4.200,0.266,3.068,0.000,11.954,0.000,0.000,34.739
8140,4.200,0.262,3.069,0.000,11.960,0.000,0.000,34.766
8160,4.200,0.257,3.071,0.000,11.966,0.000,0.000,34.843
8180,4.200,0.253,3.072,0.000,11.972,0.000,0.000,34.738
8200,4.200,0.248,3.074,0.000,11.978,0.000,0.000,34.764
8220,4.200,0.244,3.075,0.000,11.984,0.000,0.000,34.764
8240,4.200,0.239,3.076,0.000,11.989,0.000,0.000,34.735
8260,4.200,0.236,3.078,0.000,11.995,0.000,0.000,34.750
8280,4.200,0.231,3.079,0.000,12.000,0.000,0.000,34.737
8300,4.200,0.227,3.080,0.000,12.006,0.000,0.000,34.726
8320,4.200,0.223,3.081,0.000,12.011,0.000,0.000,34.727
8340,4.200,0.219,3.083,0.000,12.016,0.000,0.000,34.715
8360,4.200,0.215,3.084,0.000,12.021,0.000,0.000,34.717
8380,4.200,0.212,3.085,0.000,12.026,0.000,0.000,34.772
8400,4.200,0.208,3.086,0.000,12.031,0.000,0.000,34.762
8420,4.200,0.204,3.087,0.000,12.036,0.000,0.000,34.766
8440,4.200,0.200,3.088,0.000,12.041,0.000,0.000,34.718
8460,4.200,0.197,3.090,0.000,12.045,0.000,0.000,34.729
8480,4.200,0.193,3.091,0.000,12.050,0.000,0.000,34.765
8500,4.200,0.190,3.092,0.000,12.054,0.000,0.000,34.733
8520,4.200,0.187,3.093,0.000,12.059,0.000,0.000,34.709
8540,4.200,0.183,3.094,0.000,12.063,0.000,0.000,34.729
8560,4.200,0.180,3.095,0.000,12.067,0.000,0.000,34.746
8580,4.200,0.177,3.096,0.000,12.071,0.000,0.000,34.722
8600,4.200,0.174,3.097,0.000,12.075,0.000,0.000,34.686
8620,4.200,0.170,3.098,0.000,12.079,0.000,0.000,34.706
8640,4.200,0.168,3.099,0.000,12.083,0.000,0.000,34.656
8660,4.200,0.164,3.100,0.000,12.087,0.000,0.000,34.684
8680,4.200,0.162,3.100,0.000,12.091,0.000,0.000,34.710
8700,4.200,0.158,3.101,0.000,12.095,0.000,0.000,34.682
8720,4.200,0.156,3.102,0.000,12.098,0.000,0.000,34.728
8740,4.200,0.153,3.103,0.000,12.102,0.000,0.000,34.681
8760,4.200,0.150,3.104,0.000,12.106,0.000,0.000,34.650
8780,4.200,0.147,3.105,0.000,12.109,0.000,0.000,34.661
8800,4.200,0.145,3.106,0.000,12.112,0.000,0.000,34.654
8820,4.200,0.142,3.106,0.000,12.116,0.000,0.000,34.679
8840,4.200,0.140,3.107,0.000,12.119,0.000,0.000,34.644
8860,4.200,0.137,3.108,0.000,12.122,0.000,0.000,34.669
8880,4.200,0.135,3.109,0.000,12.125,0.000,0.000,34.699
8900,4.200,0.133,3.109,0.000,12.129,0.000,0.000,34.638
8920,4.200,0.130,3.110,0.000,12.132,0.000,0.000,34.621
8940,4.200,0.128,3.111,0.000,12.135,0.000,0.000,34.682
8960,4.200,0.125,3.112,0.000,12.138,0.000,0.000,34.653
8980,4.200,0.124,3.112,0.000,12.141,0.000,0.000,34.668
9000,4.200,0.121,3.113,0.000,12.143,0.000,0.000,34.631
9020,4.200,0.119,3.114,0.000,12.146,0.000,0.000,34.677
9040,4.200,0.117,3.114,0.000,12.149,0.000,0.000,34.650
9060,4.200,0.114,3.115,0.000,12.152,0.000,0.000,34.673
9080,4.200,0.113,3.115,0.000,12.154,0.000,0.000,34.627
9100,4.200,0.110,3.116,0.000,12.157,0.000,0.000,34.618
9120,4.200,0.109,3.117,0.000,12.159,0.000,0.000,34.651
9140,4.200,0.107,3.117,0.000,12.162,0.000,0.000,34.644
9160,4.200,0.105,3.118,0.000,12.164,0.000,0.000,34.638
9180,4.200,0.103,3.118,0.000,12.167,0.000,0.000,34.658
9200,4.200,0.101,3.119,0.000,12.169,0.000,0.000,34.624
9220,4.200,0.100,3.120,0.000,12.172,0.000,0.000,34.594
9240,4.200,0.098,3.120,0.000,12.174,0.000,0.000,34.622
9260,4.200,0.096,3.121,0.000,12.176,0.000,0.000,34.626
9280,4.200,0.094,3.121,0.000,12.178,0.000,0.000,34.629
9300,4.200,0.093,3.122,0.000,12.181,0.000,0.000,34.626
9320,4.200,0.091,3.122,0.000,12.183,0.000,0.000,34.663
9340,4.200,0.089,3.123,0.000,12.185,0.000,0.000,34.651
9360,4.200,0.088,3.123,0.000,12.187,0.000,0.000,34.655
9380,4.200,0.087,3.124,0.000,12.189,0.000,0.000,34.634
9400,4.200,0.084,3.124,0.000,12.191,0.000,0.000,34.601
9420,4.200,0.084,3.125,0.000,12.193,0.000,0.000,34.637
9440,4.200,0.082,3.125,0.000,12.195,0.000,0.000,34.628
9460,4.200,0.081,3.126,0.000,12.197,0.000,0.000,34.613
9480,4.200,0.079,3.126,0.000,12.199,0.000,0.000,34.608
9500,4.200,0.079,3.126,0.000,12.200,0.000,0.000,34.659
9520,4.200,0.077,3.127,0.000,12.202,0.000,0.000,34.658
9540,4.200,0.076,3.127,0.000,12.204,0.000,0.000,34.638
9560,4.200,0.075,3.128,0.000,12.206,0.000,0.000,34.664
9580,4.200,0.073,3.128,0.000,12.208,0.000,0.000,34.643
9600,4.200,0.072,3.129,0.000,12.209,0.000,0.000,34.675
9620,4.200,0.071,3.129,0.000,12.211,0.000,0.000,34.641
9640,4.200,0.070,3.129,0.000,12.213,0.000,0.000,34.627
9660,4.200,0.069,3.130,0.000,12.214,0.000,0.000,34.643
9680,4.200,0.068,3.130,0.000,12.216,0.000,0.000,34.639
9700,4.200,0.067,3.131,0.000,12.217,0.000,0.000,34.661
9719,4.195,0.000,3.131,0.000,12.219,0.000,0.000,34.607
9739,4.194,0.000,3.131,0.000,12.219,0.000,0.000,34.614
9759,4.193,0.000,3.131,0.000,12.219,0.000,0.000,34.650
9779,4.193,0.000,3.131,0.000,12.219,0.000,0.000,34.611
9799,4.192,0.000,3.131,0.000,12.219,0.000,0.000,34.651
9819,4.192,0.000,3.131,0.000,12.219,0.000,0.000,34.611
9839,4.192,0.000,3.131,0.000,12.219,0.000,0.000,34.628
9859,4.191,0.000,3.131,0.000,12.219,0.000,0.000,34.628
9879,4.191,0.000,3.131,0.000,12.219,0.000,0.000,34.632
9899,4.191,0.000,3.131,0.000,12.219,0.000,0.000,34.637
9919,4.191,0.000,3.131,0.000,12.219,0.000,0.000,34.652
9939,4.191,0.000,3.131,0.000,12.219,0.000,0.000,34.614
9959,4.190,0.000,3.131,0.000,12.219,0.000,0.000,34.632
9979,4.190,0.000,3.131,0.000,12.219,0.000,0.000,34.624
9999,4.190,0.000,3.131,0.000,12.219,0.000,0.000,34.651
10019,4.190,0.000,3.131,0.000,12.219,0.000,0.000,34.612
10039,4.190,0.000,3.131,0.000,12.219,0.000,0.000,34.658
10059,4.190,0.000,3.131,0.000,12.219,0.000,0.000,34.618
10079,4.189,0.000,3.131,0.000,12.219,0.000,0.000,34.654
10099,4.189,0.000,3.131,0.000,12.219,0.000,0.000,34.646
10119,4.189,0.000,3.131,0.000,12.219,0.000,0.000,34.617
10139,4.189,0.000,3.131,0.000,12.219,0.000,0.000,34.636
10159,4.189,0.000,3.131,0.000,12.219,0.000,0.000,34.614
10179,4.189,0.000,3.131,0.000,12.219,0.000,0.000,34.682
10199,4.189,0.000,3.131,0.000,12.219,0.000,0.000,34.608
10219,4.189,0.000,3.131,0.000,12.219,0.000,0.000,34.628
10239,4.188,0.000,3.131,0.000,12.219,0.000,0.000,34.633
10259,4.188,0.000,3.131,0.000,12.219,0.000,0.000,34.599
10279,4.188,0.000,3.131,0.000,12.219,0.000,0.000,34.624
10299,4.188,0.000,3.131,0.000,12.219,0.000,0.000,34.636
10319,4.188,0.000,3.131,0.000,12.219,0.000,0.000,34.626
10339,4.188,0.000,3.131,0.000,12.219,0.000,0.000,34.594
10359,4.188,0.000,3.131,0.000,12.219,0.000,0.000,34.637
10379,4.188,0.000,3.131,0.000,12.219,0.000,0.000,34.570
10399,4.187,0.000,3.131,0.000,12.219,0.000,0.000,34.595
10419,4.187,0.000,3.131,0.000,12.219,0.000,0.000,34.596
10439,4.187,0.000,3.131,0.000,12.219,0.000,0.000,34.606
10459,4.187,0.000,3.131,0.000,12.219,0.000,0.000,34.604
10479,4.187,0.000,3.131,0.000,12.219,0.000,0.000,34.591
10499,4.187,0.000,3.131,0.000,12.219,0.000,0.000,34.615
10519,4.187,0.000,3.131,0.000,12.219,0.000,0.000,34.577
10539,4.187,0.000,3.131,0.000,12.219,0.000,0.000,34.592
10559,4.187,0.000,3.131,0.000,12.219,0.000,0.000,34.591
10579,4.187,0.000,3.131,0.000,12.219,0.000,0.000,34.600
10599,4.186,0.000,3.131,0.000,12.219,0.000,0.000,34.582
10619,4.186,0.000,3.131,0.000,12.219,0.000,0.000,34.570
10639,4.186,0.000,3.131,0.000,12.219,0.000,0.000,34.625
10659,4.186,0.000,3.131,0.000,12.219,0.000,0.000,34.611
10679,4.186,0.000,3.131,0.000,12.219,0.000,0.000,34.611
10699,4.186,0.000,3.131,0.000,12.219,0.000,0.000,34.617
10719,4.186,0.000,3.131,0.000,12.219,0.000,0.000,34.617
10739,4.186,0.000,3.131,0.000,12.219,0.000,0.000,34.615
10759,4.186,0.000,3.131,0.000,12.219,0.000,0.000,34.591
10779,4.186,0.000,3.131,0.000,12.219,0.000,0.000,34.636
10799,4.186,0.000,3.131,0.000,12.219,0.000,0.000,34.626
10819,4.186,0.000,3.131,0.000,12.219,0.000,0.000,34.632
10839,4.186,0.000,3.131,0.000,12.219,0.000,0.000,34.612
10859,4.185,0.000,3.131,0.000,12.219,0.000,0.000,34.604
10879,4.185,0.000,3.131,0.000,12.219,0.000,0.000,34.637
10899,4.185,0.000,3.131,0.000,12.219,0.000,0.000,34.639
10919,4.185,0.000,3.131,0.000,12.219,0.000,0.000,34.629
10939,4.185,0.000,3.131,0.000,12.219,0.000,0.000,34.623
10959,4.185,0.000,3.131,0.000,12.219,0.000,0.000,34.636
10979,4.185,0.000,3.131,0.000,12.219,0.000,0.000,34.633
10999,4.185,0.000,3.131,0.000,12.219,0.000,0.000,34.594
11019,4.185,0.000,3.131,0.000,12.219,0.000,0.000,34.568
11039,4.185,0.000,3.131,0.000,12.219,0.000,0.000,34.624
11059,4.185,0.000,3.131,0.000,12.219,0.000,0.000,34.618
11079,4.185,0.000,3.131,0.000,12.219,0.000,0.000,34.652
11099,4.185,0.000,3.131,0.000,12.219,0.000,0.000,34.579
11119,4.185,0.000,3.131,0.000,12.219,0.000,0.000,34.629
11139,4.185,0.000,3.131,0.000,12.219,0.000,0.000,34.623
11159,4.185,0.000,3.131,0.000,12.219,0.000,0.000,34.620
11179,4.184,0.000,3.131,0.000,12.219,0.000,0.000,34.592
11199,4.184,0.000,3.131,0.000,12.219,0.000,0.000,34.609
11219,4.184,0.000,3.131,0.000,12.219,0.000,0.000,34.597
11239,4.184,0.000,3.131,0.000,12.219,0.000,0.000,34.581
11259,4.184,0.000,3.131,0.000,12.219,0.000,0.000,34.590
11279,4.184,0.000,3.131,0.000,12.219,0.000,0.000,34.606
11299,4.184,0.000,3.131,0.000,12.219,0.000,0.000,34.623
11319,4.184,0.000,3.131,0.000,12.219,0.000,0.000,34.580
11339,4.184,0.000,3.131,0.000,12.219,0.000,0.000,34.665
11359,4.184,0.000,3.131,0.000,12.219,0.000,0.000,34.601
11379,4.184,0.000,3.131,0.000,12.219,0.000,0.000,34.589
11399,4.184,0.000,3.131,0.000,12.219,0.000,0.000,34.637
11419,4.184,0.000,3.131,0.000,12.219,0.000,0.000,34.581
11439,4.184,0.000,3.131,0.000,12.219,0.000,0.000,34.594
11459,4.184,0.000,3.131,0.000,12.219,0.000,0.000,34.610
11479,4.184,0.000,3.131,0.000,12.219,0.000,0.000,34.586
11499,4.184,0.000,3.131,0.000,12.219,0.000,0.000,34.597
11519,4.184,0.000,3.131,0.000,12.219,0.000,0.000,34.597
11539,4.184,0.000,3.131,0.000,12.219,0.000,0.000,34.621
11559,4.184,0.000,3.131,0.000,12.219,0.000,0.000,34.573
11579,4.184,0.000,3.131,0.000,12.219,0.000,0.000,34.628
11599,4.184,0.000,3.131,0.000,12.219,0.000,0.000,34.648
11619,4.183,0.000,3.131,0.000,12.219,0.000,0.000,34.614
11639,4.184,0.000,3.131,0.000,12.219,0.000,0.000,34.630
11659,4.183,0.000,3.131,0.000,12.219,0.000,0.000,34.603
11679,4.183,0.000,3.131,0.000,12.219,0.000,0.000,34.648
11699,4.183,0.000,3.131,0.000,12.219,0.000,0.000,34.598
11719,4.183,0.000,3.131,0.000,12.219,0.000,0.000,34.574
11739,4.183,0.000,3.131,0.000,12.219,0.000,0.000,34.655
11759,4.183,0.000,3.131,0.000,12.219,0.000,0.000,34.608
11779,4.183,0.000,3.131,0.000,12.219,0.000,0.000,34.617
11799,4.183,0.000,3.131,0.000,12.219,0.000,0.000,34.636
11819,4.183,0.000,3.131,0.000,12.219,0.000,0.000,34.618
11839,4.183,0.000,3.131,0.000,12.219,0.000,0.000,34.671
11859,4.183,0.000,3.131,0.000,12.219,0.000,0.000,34.606
11879,4.183,0.000,3.131,0.000,12.219,0.000,0.000,34.614
11899,4.183,0.000,3.131,0.000,12.219,0.000,0.000,34.609
11919,4.183,0.000,3.131,0.000,12.219,0.000,0.000,34.631
11939,4.183,0.000,3.131,0.000,12.219,0.000,0.000,34.584
11959,4.183,0.000,3.131,0.000,12.219,0.000,0.000,34.631
11979,4.183,0.000,3.131,0.000,12.219,0.000,0.000,34.631
11999,4.183,0.000,3.131,0.000,12.219,0.000,0.000,34.602
12019,4.183,0.000,3.131,0.000,12.219,0.000,0.000,34.605
12039,4.183,0.000,3.131,0.000,12.219,0.000,0.000,34.619
12059,4.183,0.000,3.131,0.000,12.219,0.000,0.000,34.605
12079,4.183,0.000,3.131,0.000,12.219,0.000,0.000,34.569
12099,4.182,0.000,3.131,0.000,12.219,0.000,0.000,34.605
12119,4.182,0.000,3.131,0.000,12.219,0.000,0.000,34.608
12139,4.183,0.000,3.131,0.000,12.219,0.000,0.000,34.588
12159,4.182,0.000,3.131,0.000,12.219,0.000,0.000,34.633
12179,4.182,0.000,3.131,0.000,12.219,0.000,0.000,34.579
12199,4.182,0.000,3.131,0.000,12.219,0.000,0.000,34.626
12219,4.182,0.000,3.131,0.000,12.219,0.000,0.000,34.636
12239,4.182,0.000,3.131,0.000,12.219,0.000,0.000,34.579
12259,4.182,0.000,3.131,0.000,12.219,0.000,0.000,34.596
12279,4.182,0.000,3.131,0.000,12.219,0.000,0.000,34.626
12299,4.182,0.000,3.131,0.000,12.219,0.000,0.000,34.587
12319,4.182,0.000,3.131,0.000,12.219,0.000,0.000,34.583
12339,4.182,0.000,3.131,0.000,12.219,0.000,0.000,34.609
12359,4.182,0.000,3.131,0.000,12.219,0.000,0.000,34.614
12379,4.182,0.000,3.131,0.000,12.219,0.000,0.000,34.635
12399,4.182,0.000,3.131,0.000,12.219,0.000,0.000,34.571
12419,4.182,0.000,3.131,0.000,12.219,0.000,0.000,34.628
12439,4.182,0.000,3.131,0.000,12.219,0.000,0.000,34.610
12459,4.182,0.000,3.131,0.000,12.219,0.000,0.000,34.602
12479,4.182,0.000,3.131,0.000,12.219,0.000,0.000,34.654
12499,4.182,0.000,3.131,0.000,12.219,0.000,0.000,34.578
12519,4.182,0.000,3.131,0.000,12.219,0.000,0.000,34.594
12539,4.182,0.000,3.131,0.000,12.219,0.000,0.000,34.568
12559,4.182,0.000,3.131,0.000,12.219,0.000,0.000,34.618
12579,4.182,0.000,3.131,0.000,12.219,0.000,0.000,34.575
12599,4.182,0.000,3.131,0.000,12.219,0.000,0.000,34.613
12619,4.182,0.000,3.131,0.000,12.219,0.000,0.000,34.603
12639,4.181,0.000,3.131,0.000,12.219,0.000,0.000,34.617
12659,4.182,0.000,3.131,0.000,12.219,0.000,0.000,34.638
12679,4.182,0.000,3.131,0.000,12.219,0.000,0.000,34.606
12699,4.181,0.000,3.131,0.000,12.219,0.000,0.000,34.559
12719,4.182,0.000,3.131,0.000,12.219,0.000,0.000,34.633
12739,4.181,0.000,3.131,0.000,12.219,0.000,0.000,34.620
12759,4.182,0.000,3.131,0.000,12.219,0.000,0.000,34.622
12779,4.181,0.000,3.131,0.000,12.219,0.000,0.000,34.592
12799,4.181,0.000,3.131,0.000,12.219,0.000,0.000,34.614
12819,4.181,0.000,3.131,0.000,12.219,0.000,0.000,34.574
12839,4.181,0.000,3.131,0.000,12.219,0.000,0.000,34.627
12859,4.181,0.000,3.131,0.000,12.219,0.000,0.000,34.597
12879,4.181,0.000,3.131,0.000,12.219,0.000,0.000,34.613
12899,4.181,0.000,3.131,0.000,12.219,0.000,0.000,34.607
12919,4.181,0.000,3.131,0.000,12.219,0.000,0.000,34.612
12939,4.181,0.000,3.131,0.000,12.219,0.000,0.000,34.595
12959,4.181,0.000,3.131,0.000,12.219,0.000,0.000,34.619
12979,4.181,0.000,3.131,0.000,12.219,0.000,0.000,34.574
12999,4.181,0.000,3.131,0.000,12.219,0.000,0.000,34.568
13019,4.181,0.000,3.131,0.000,12.219,0.000,0.000,34.585
13039,4.181,0.000,3.131,0.000,12.219,0.000,0.000,34.584
13059,4.181,0.000,3.131,0.000,12.219,0.000,0.000,34.613
13079,4.181,0.000,3.131,0.000,12.219,0.000,0.000,34.627
13099,4.181,0.000,3.131,0.000,12.219,0.000,0.000,34.623
13119,4.181,0.000,3.131,0.000,12.219,0.000,0.000,34.614
13139,4.181,0.000,3.131,0.000,12.219,0.000,0.000,34.591
13159,4.181,0.000,3.131,0.000,12.219,0.000,0.000,34.603
13179,4.181,0.000,3.131,0.000,12.219,0.000,0.000,34.599
13199,4.181,0.000,3.131,0.000,12.219,0.000,0.000,34.599
13219,4.181,0.000,3.131,0.000,12.219,0.000,0.000,34.640
13239,4.181,0.000,3.131,0.000,12.219,0.000,0.000,34.592
13259,4.181,0.000,3.131,0.000,12.219,0.000,0.000,34.625
13279,4.181,0.000,3.131,0.000,12.219,0.000,0.000,34.603
13299,4.181,0.000,3.131,0.000,12.219,0.000,0.000,34.607
13318,3.466,-10.048,3.131,0.006,12.219,0.019,-0.009,34.624
13338,3.421,-10.048,3.131,0.061,12.219,0.211,-0.001,35.602
13358,3.403,-10.048,3.131,0.117,12.219,0.402,0.001,36.861
13378,3.386,-10.048,3.131,0.173,12.219,0.591,-0.001,38.194
13398,3.368,-10.047,3.131,0.229,12.219,0.780,-0.001,39.460
13418,3.353,-10.047,3.131,0.285,12.219,0.967,-0.001,40.678
13438,3.337,-10.047,3.131,0.341,12.219,1.154,-0.001,41.741
13458,3.317,-10.047,3.131,0.396,12.219,1.339,-0.001,42.724
13478,3.298,-10.047,3.131,0.452,12.219,1.524,-0.001,43.682
13498,3.276,-10.047,3.131,0.508,12.219,1.708,-0.001,44.547
13518,3.257,-10.047,3.131,0.564,12.219,1.890,-0.001,45.333
13538,3.235,-10.048,3.131,0.620,12.219,2.071,-0.001,46.088
13558,3.214,-10.047,3.131,0.675,12.219,2.251,-0.001,46.749
13578,3.192,-10.048,3.131,0.731,12.219,2.430,-0.001,47.485
13598,3.173,-10.047,3.131,0.787,12.219,2.607,-0.001,48.147
13618,3.152,-10.047,3.131,0.843,12.219,2.784,-0.001,48.695
13638,3.129,-10.048,3.131,0.899,12.219,2.959,-0.002,49.492
13658,3.109,-10.048,3.131,0.955,12.219,3.133,-0.001,50.123
13678,3.090,-10.048,3.131,1.010,12.219,3.306,-0.001,50.585
13698,3.068,-10.048,3.131,1.066,12.219,3.478,-0.001,51.171
13718,3.048,-10.049,3.131,1.122,12.219,3.649,-0.001,51.742
13738,3.029,-10.048,3.131,1.178,12.219,3.819,-0.001,52.200
13758,3.012,-10.049,3.131,1.234,12.219,3.987,-0.001,52.851
13778,2.991,-10.048,3.131,1.289,12.219,4.155,-0.001,53.355
13798,2.972,-10.048,3.131,1.345,12.219,4.321,0.000,53.757
13818,2.954,-10.049,3.131,1.401,12.219,4.487,-0.001,54.175
13838,2.936,-10.049,3.131,1.457,12.219,4.651,-0.001,54.674
13858,2.920,-10.049,3.131,1.513,12.219,4.814,-0.001,55.129
13878,2.902,-10.049,3.131,1.569,12.219,4.977,0.000,55.413
13898,2.885,-10.049,3.131,1.624,12.219,5.138,0.000,55.950
13918,2.868,-10.049,3.131,1.680,12.219,5.299,-0.001,56.384
13938,2.851,-10.049,3.131,1.736,12.219,5.459,0.000,56.827
13958,2.835,-10.050,3.131,1.792,12.219,5.617,-0.001,57.096
13978,2.819,-10.049,3.131,1.848,12.219,5.775,-0.001,57.529
13998,2.802,-10.050,3.131,1.904,12.219,5.932,-0.001,57.875
14018,2.783,-10.049,3.131,1.959,12.219,6.088,-0.001,58.426
14038,2.765,-10.049,3.131,2.015,12.219,6.243,0.000,58.725
14058,2.748,-10.050,3.131,2.071,12.219,6.397,0.000,59.135
14078,2.728,-10.050,3.131,2.127,12.219,6.550,-0.001,59.548
14098,2.713,-10.050,3.131,2.183,12.219,6.702,-0.001,59.867
14118,2.688,-10.051,3.131,2.239,12.219,6.852,-0.002,60.271
14138,2.672,-10.051,3.131,2.294,12.219,7.002,-0.001,60.638
14158,2.654,-10.050,3.131,2.350,12.219,7.151,-0.002,61.158
14178,2.637,-10.051,3.131,2.406,12.219,7.299,-0.001,61.592
14198,2.619,-10.050,3.131,2.462,12.219,7.445,-0.001,61.832
14218,2.600,-10.051,3.131,2.518,12.219,7.591,-0.001,62.264
14238,2.582,-10.051,3.131,2.574,12.219,7.735,-0.001,62.651
14258,2.564,-10.051,3.131,2.629,12.219,7.879,-0.001,63.159
14278,2.545,-10.051,3.131,2.685,12.219,8.022,-0.001,63.472
14298,2.520,-10.051,3.131,2.741,12.219,8.163,-0.001,63.847
14317,2.500,-10.051,3.131,2.794,12.219,8.297,0.040,64.257
14338,3.321,0.000,3.131,2.795,12.219,8.297,0.004,63.624
14358,3.360,0.000,3.131,2.795,12.219,8.297,0.001,62.465
14378,3.372,0.000,3.131,2.795,12.219,8.297,0.000,61.074
14398,3.376,0.000,3.131,2.795,12.219,8.297,0.000,59.726
14418,3.378,0.000,3.131,2.795,12.219,8.297,0.000,58.300
14438,3.380,0.000,3.131,2.795,12.219,8.297,0.000,56.964
14458,3.381,0.000,3.131,2.795,12.219,8.297,0.000,55.659
14478,3.382,0.000,3.131,2.795,12.219,8.297,0.000,54.472
14498,3.384,0.000,3.131,2.795,12.219,8.297,0.000,53.427
14518,3.386,0.000,3.131,2.795,12.219,8.297,0.000,52.383
14538,3.388,0.000,3.131,2.795,12.219,8.297,0.000,51.393
14558,3.390,0.000,3.131,2.795,12.219,8.297,0.000,50.406
14578,3.392,0.000,3.131,2.795,12.219,8.297,0.000,49.556
14598,3.394,0.000,3.131,2.795,12.219,8.297,0.000,48.682
14618,3.397,0.000,3.131,2.795,12.219,8.297,0.000,47.950
14638,3.399,0.000,3.131,2.795,12.219,8.297,0.000,47.212
14658,3.401,0.000,3.131,2.795,12.219,8.297,0.000,46.472
14678,3.402,0.000,3.131,2.795,12.219,8.297,0.000,45.835
14698,3.404,0.000,3.131,2.795,12.219,8.297,0.000,45.215
14718,3.405,0.000,3.131,2.795,12.219,8.297,0.000,44.538
14738,3.406,0.000,3.131,2.795,12.219,8.297,0.000,44.043
14758,3.408,0.000,3.131,2.795,12.219,8.297,0.000,43.506
14778,3.408,0.000,3.131,2.795,12.219,8.297,0.000,43.014
14798,3.409,0.000,3.131,2.795,12.219,8.297,0.000,42.602
14818,3.410,0.000,3.131,2.795,12.219,8.297,0.000,42.108
14838,3.411,0.000,3.131,2.795,12.219,8.297,0.000,41.750
14858,3.411,0.000,3.131,2.795,12.219,8.297,0.000,41.348
14878,3.412,0.000,3.131,2.795,12.219,8.297,0.000,41.023
14898,3.412,0.000,3.131,2.795,12.219,8.297,0.000,40.695
14918,3.413,0.000,3.131,2.795,12.219,8.297,0.000,40.386
14938,3.413,0.000,3.131,2.795,12.219,8.297,0.000,40.067
14958,3.414,0.000,3.131,2.795,12.219,8.297,0.000,39.832
14978,3.414,0.000,3.131,2.795,12.219,8.297,0.000,39.532
14998,3.414,0.000,3.131,2.795,12.219,8.297,0.000,39.323
15018,3.415,0.000,3.131,2.795,12.219,8.297,0.000,39.080
15038,3.415,0.000,3.131,2.795,12.219,8.297,0.000,38.797
15058,3.415,0.000,3.131,2.795,12.219,8.297,0.000,38.621
15078,3.416,0.000,3.131,2.795,12.219,8.297,0.000,38.405
15098,3.416,0.000,3.131,2.795,12.219,8.297,0.000,38.211
15118,3.416,0.000,3.131,2.795,12.219,8.297,0.000,38.060
15138,3.416,0.000,3.131,2.795,12.219,8.297,0.000,37.883
15158,3.416,0.000,3.131,2.795,12.219,8.297,0.000,37.692
15178,3.416,0.000,3.131,2.795,12.219,8.297,0.000,37.552
15198,3.417,0.000,3.131,2.795,12.219,8.297,0.000,37.394
15218,3.417,0.000,3.131,2.795,12.219,8.297,0.000,37.275
15238,3.417,0.000,3.131,2.795,12.219,8.297,0.000,37.163
15258,3.417,0.000,3.131,2.795,12.219,8.297,0.000,36.976
15278,3.417,0.000,3.131,2.795,12.219,8.297,0.000,36.895
15298,3.417,0.000,3.131,2.795,12.219,8.297,0.000,36.778
15318,3.417,0.000,3.131,2.795,12.219,8.297,0.000,36.672
15338,3.417,0.000,3.131,2.795,12.219,8.297,0.000,36.597
15358,3.418,0.000,3.131,2.795,12.219,8.297,0.000,36.494
15378,3.418,0.000,3.131,2.795,12.219,8.297,0.000,36.402
15398,3.418,0.000,3.131,2.795,12.219,8.297,0.000,36.343
15418,3.418,0.000,3.131,2.795,12.219,8.297,0.000,36.217
15438,3.418,0.000,3.131,2.795,12.219,8.297,0.000,36.161
15458,3.418,0.000,3.131,2.795,12.219,8.297,0.000,36.074
15478,3.418,0.000,3.131,2.795,12.219,8.297,0.000,36.045
15498,3.418,0.000,3.131,2.795,12.219,8.297,0.000,35.962
15518,3.418,0.000,3.131,2.795,12.219,8.297,0.000,35.891
15538,3.418,0.000,3.131,2.795,12.219,8.297,0.000,35.832
15558,3.418,0.000,3.131,2.795,12.219,8.297,0.000,35.787
15578,3.419,0.000,3.131,2.795,12.219,8.297,0.000,35.747
15598,3.418,0.000,3.131,2.795,12.219,8.297,0.000,35.667
15618,3.418,0.000,3.131,2.795,12.219,8.297,0.000,35.608
15638,3.418,0.000,3.131,2.795,12.219,8.297,0.000,35.586
15658,3.418,0.000,3.131,2.795,12.219,8.297,0.000,35.536
15678,3.419,0.000,3.131,2.795,12.219,8.297,0.000,35.512
15698,3.418,0.000,3.131,2.795,12.219,8.297,0.000,35.449
15718,3.419,0.000,3.131,2.795,12.219,8.297,0.000,35.412
15738,3.419,0.000,3.131,2.795,12.219,8.297,0.000,35.333
15758,3.419,0.000,3.131,2.795,12.219,8.297,0.000,35.328
15778,3.419,0.000,3.131,2.795,12.219,8.297,0.000,35.321
15798,3.419,0.000,3.131,2.795,12.219,8.297,0.000,35.270
15818,3.419,0.000,3.131,2.795,12.219,8.297,0.000,35.268
15838,3.419,0.000,3.131,2.795,12.219,8.297,0.000,35.250
15858,3.419,0.000,3.131,2.795,12.219,8.297,0.000,35.185
15878,3.419,0.000,3.131,2.795,12.219,8.297,0.000,35.159
15898,3.419,0.000,3.131,2.795,12.219,8.297,0.000,35.123
15918,3.419,0.000,3.131,2.795,12.219,8.297,0.000,35.158
15938,3.419,0.000,3.131,2.795,12.219,8.297,0.000,35.117
15958,3.419,0.000,3.131,2.795,12.219,8.297,0.000,35.087
15978,3.419,0.000,3.131,2.795,12.219,8.297,0.000,35.086
15998,3.419,0.000,3.131,2.795,12.219,8.297,0.000,35.044
16018,3.419,0.000,3.131,2.795,12.219,8.297,0.000,35.041
16038,3.419,0.000,3.131,2.795,12.219,8.297,0.000,35.030
16058,3.419,0.000,3.131,2.795,12.219,8.297,0.000,34.974
16078,3.419,0.000,3.131,2.795,12.219,8.297,0.000,34.990
16098,3.419,0.000,3.131,2.795,12.219,8.297,0.000,34.938
16118,3.419,0.000,3.131,2.795,12.219,8.297,0.000,34.978
16138,3.419,0.000,3.131,2.795,12.219,8.297,0.000,34.915
16158,3.419,0.000,3.131,2.795,12.219,8.297,0.000,34.870
16178,3.419,0.000,3.131,2.795,12.219,8.297,0.000,34.932
16198,3.419,0.000,3.131,2.795,12.219,8.297,0.000,34.895
16218,3.419,0.000,3.131,2.795,12.219,8.297,0.000,34.881
16238,3.419,0.000,3.131,2.795,12.219,8.297,0.000,34.909
16258,3.419,0.000,3.131,2.795,12.219,8.297,0.000,34.861
16278,3.419,0.000,3.131,2.795,12.219,8.297,0.000,34.845
16298,3.419,0.000,3.131,2.795,12.219,8.297,0.000,34.859
16318,3.419,0.000,3.131,2.795,12.219,8.297,0.000,34.855
16338,3.419,0.000,3.131,2.795,12.219,8.297,0.000,34.874
16358,3.419,0.000,3.131,2.795,12.219,8.297,0.000,34.851
16378,3.419,0.000,3.131,2.795,12.219,8.297,0.000,34.828
16398,3.419,0.000,3.131,2.795,12.219,8.297,0.000,34.831
16418,3.420,0.000,3.131,2.795,12.219,8.297,0.000,34.782
16438,3.420,0.000,3.131,2.795,12.219,8.297,0.000,34.807
16458,3.420,0.000,3.131,2.795,12.219,8.297,0.000,34.803
16478,3.420,0.000,3.131,2.795,12.219,8.297,0.000,34.752
16498,3.420,0.000,3.131,2.795,12.219,8.297,0.000,34.763
16518,3.420,0.000,3.131,2.795,12.219,8.297,0.000,34.834
16538,3.420,0.000,3.131,2.795,12.219,8.297,0.000,34.764
16558,3.420,0.000,3.131,2.795,12.219,8.297,0.000,34.780
16578,3.420,0.000,3.131,2.795,12.219,8.297,0.000,34.744
16598,3.419,0.000,3.131,2.795,12.219,8.297,0.000,34.741
16618,3.420,0.000,3.131,2.795,12.219,8.297,0.000,34.707
16638,3.420,0.000,3.131,2.795,12.219,8.297,0.000,34.750
16658,3.420,0.000,3.131,2.795,12.219,8.297,0.000,34.747
16678,3.420,0.000,3.131,2.795,12.219,8.297,0.000,34.716
16698,3.419,0.000,3.131,2.795,12.219,8.297,0.000,34.730
16718,3.420,0.000,3.131,2.795,12.219,8.297,0.000,34.684
16738,3.420,0.000,3.131,2.795,12.219,8.297,0.000,34.705
16758,3.420,0.000,3.131,2.795,12.219,8.297,0.000,34.728
16778,3.420,0.000,3.131,2.795,12.219,8.297,0.000,34.720
16798,3.420,0.000,3.131,2.795,12.219,8.297,0.000,34.711
16818,3.420,0.000,3.131,2.795,12.219,8.297,0.000,34.704
16838,3.420,0.000,3.131,2.795,12.219,8.297,0.000,34.727
16858,3.420,0.000,3.131,2.795,12.219,8.297,0.000,34.687
16878,3.420,0.000,3.131,2.795,12.219,8.297,0.000,34.727
16898,3.420,0.000,3.131,2.795,12.219,8.297,0.000,34.715
16918,3.420,0.000,3.131,2.795,12.219,8.297,0.000,34.700
16938,3.420,0.000,3.131,2.795,12.219,8.297,0.000,34.716
16958,3.420,0.000,3.131,2.795,12.219,8.297,0.000,34.724
16978,3.420,0.000,3.131,2.795,12.219,8.297,0.000,34.691
16998,3.420,0.000,3.131,2.795,12.219,8.297,0.000,34.693
17018,3.420,0.000,3.131,2.795,12.219,8.297,0.000,34.645
17038,3.420,0.000,3.131,2.795,12.219,8.297,0.000,34.657
17058,3.420,0.000,3.131,2.795,12.219,8.297,0.000,34.670
17078,3.420,0.000,3.131,2.795,12.219,8.297,0.000,34.700
17098,3.420,0.000,3.131,2.795,12.219,8.297,0.000,34.661
17118,3.420,0.000,3.131,2.795,12.219,8.297,0.000,34.696
17138,3.420,0.000,3.131,2.795,12.219,8.297,0.000,34.681
17158,3.420,0.000,3.131,2.795,12.219,8.297,0.000,34.683
17178,3.420,0.000,3.131,2.795,12.219,8.297,0.000,34.685
17198,3.420,0.000,3.131,2.795,12.219,8.297,0.000,34.662
17218,3.420,0.000,3.131,2.795,12.219,8.297,0.000,34.679
17238,3.420,0.000,3.131,2.795,12.219,8.297,0.000,34.646
17258,3.420,0.000,3.131,2.795,12.219,8.297,0.000,34.675
17278,3.420,0.000,3.131,2.795,12.219,8.297,0.000,34.695
17298,3.420,0.000,3.131,2.795,12.219,8.297,0.000,34.680
17318,3.420,0.000,3.131,2.795,12.219,8.297,0.000,34.665
17338,3.420,0.000,3.131,2.795,12.219,8.297,0.000,34.670
17358,3.420,0.000,3.131,2.795,12.219,8.297,0.000,34.672
17378,3.420,0.000,3.131,2.795,12.219,8.297,0.000,34.670
17398,3.420,0.000,3.131,2.795,12.219,8.297,0.000,34.662
17418,3.420,0.000,3.131,2.795,12.219,8.297,0.000,34.645
17438,3.420,0.000,3.131,2.795,12.219,8.297,0.000,34.641
17458,3.420,0.000,3.131,2.795,12.219,8.297,0.000,34.669
17478,3.420,0.000,3.131,2.795,12.219,8.297,0.000,34.646
17498,3.420,0.000,3.131,2.795,12.219,8.297,0.000,34.673
17518,3.420,0.000,3.131,2.795,12.219,8.297,0.000,34.685
17538,3.420,0.000,3.131,2.795,12.219,8.297,0.000,34.676
17558,3.420,0.000,3.131,2.795,12.219,8.297,0.000,34.638
17578,3.420,0.000,3.131,2.795,12.219,8.297,0.000,34.661
17598,3.420,0.000,3.131,2.795,12.219,8.297,0.000,34.625
17618,3.420,0.000,3.131,2.795,12.219,8.297,0.000,34.626
17638,3.420,0.000,3.131,2.795,12.219,8.297,0.000,34.643
17658,3.420,0.000,3.131,2.795,12.219,8.297,0.000,34.652
17678,3.420,0.000,3.131,2.795,12.219,8.297,0.000,34.629
17698,3.420,0.000,3.131,2.795,12.219,8.297,0.000,34.665
17718,3.420,0.000,3.131,2.795,12.219,8.297,0.000,34.628
17738,3.420,0.000,3.131,2.795,12.219,8.297,0.000,34.655
17758,3.420,0.000,3.131,2.795,12.219,8.297,0.000,34.698
17778,3.420,0.000,3.131,2.795,12.219,8.297,0.000,34.621
17798,3.420,0.000,3.131,2.795,12.219,8.297,0.000,34.638
17818,3.420,0.000,3.131,2.795,12.219,8.297,0.000,34.656
17838,3.420,0.000,3.131,2.795,12.219,8.297,0.000,34.646
17858,3.420,0.000,3.131,2.795,12.219,8.297,0.000,34.674
17878,3.420,0.000,3.131,2.795,12.219,8.297,0.000,34.616
17898,3.420,0.000,3.131,2.795,12.219,8.297,0.000,34.641
17918,3.420,0.000,3.131,2.795,12.219,8.297,0.000,34.661
17918,3.420,0.000,3.131,2.795,12.219,8.297,0.000,34.661