File: data/T35/3C/4.csv
time_s,voltage_v,current_a,chargecapacity_ah,dischargecapacity_ah,charge_energy_wh,discharge_energy_wh,voltagedot_v_per_s,temp_degc
1,4.076,0.000,0.000,0.000,0.000,0.000,0.000,34.618
14,4.076,0.000,0.000,0.000,0.000,0.000,0.000,34.590
27,4.076,0.000,0.000,0.000,0.000,0.000,0.000,34.632
40,4.076,0.000,0.000,0.000,0.000,0.000,0.000,34.682
53,4.076,0.000,0.000,0.000,0.000,0.000,0.000,34.669
64,4.200,0.898,0.001,0.000,0.004,0.000,0.000,34.674
77,4.200,0.850,0.004,0.000,0.018,0.000,0.000,34.593
90,4.200,0.827,0.007,0.000,0.030,0.000,0.000,34.633
103,4.200,0.813,0.010,0.000,0.043,0.000,0.000,34.685
116,4.200,0.802,0.013,0.000,0.055,0.000,0.000,34.675
129,4.200,0.792,0.016,0.000,0.067,0.000,0.000,34.729
142,4.200,0.784,0.019,0.000,0.079,0.000,0.000,34.728
155,4.200,0.776,0.022,0.000,0.091,0.000,0.000,34.690
168,4.200,0.770,0.024,0.000,0.103,0.000,0.000,34.697
181,4.200,0.764,0.027,0.000,0.114,0.000,0.000,34.753
194,4.200,0.758,0.030,0.000,0.126,0.000,0.000,34.722
207,4.200,0.752,0.033,0.000,0.137,0.000,0.000,34.721
220,4.200,0.746,0.035,0.000,0.149,0.000,0.000,34.753
233,4.200,0.740,0.038,0.000,0.160,0.000,0.000,34.744
246,4.200,0.735,0.041,0.000,0.171,0.000,0.000,34.784
259,4.200,0.728,0.043,0.000,0.182,0.000,0.000,34.794
272,4.200,0.722,0.046,0.000,0.193,0.000,0.000,34.775
285,4.200,0.716,0.049,0.000,0.204,0.000,0.000,34.772
298,4.200,0.711,0.051,0.000,0.215,0.000,0.000,34.797
311,4.200,0.706,0.054,0.000,0.226,0.000,0.000,34.793
324,4.200,0.700,0.056,0.000,0.236,0.000,0.000,34.793
337,4.200,0.695,0.059,0.000,0.247,0.000,0.000,34.826
350,4.200,0.690,0.061,0.000,0.257,0.000,0.000,34.812
363,4.200,0.685,0.064,0.000,0.268,0.000,0.000,34.807
376,4.200,0.680,0.066,0.000,0.278,0.000,0.000,34.825
389,4.200,0.676,0.069,0.000,0.288,0.000,0.000,34.836
402,4.200,0.671,0.071,0.000,0.299,0.000,0.000,34.815
415,4.200,0.666,0.073,0.000,0.309,0.000,0.000,34.850
428,4.200,0.662,0.076,0.000,0.319,0.000,0.000,34.814
441,4.200,0.657,0.078,0.000,0.329,0.000,0.000,34.862
454,4.200,0.653,0.081,0.000,0.339,0.000,0.000,34.844
467,4.200,0.648,0.083,0.000,0.349,0.000,0.000,34.830
480,4.200,0.643,0.085,0.000,0.358,0.000,0.000,34.890
493,4.200,0.638,0.088,0.000,0.368,0.000,0.000,34.888
506,4.200,0.633,0.090,0.000,0.378,0.000,0.000,34.842
519,4.200,0.628,0.092,0.000,0.387,0.000,0.000,34.893
532,4.200,0.623,0.094,0.000,0.397,0.000,0.000,34.870
545,4.200,0.618,0.097,0.000,0.406,0.000,0.000,34.836
558,4.200,0.613,0.099,0.000,0.415,0.000,0.000,34.834
571,4.200,0.608,0.101,0.000,0.425,0.000,0.000,34.853
584,4.200,0.604,0.103,0.000,0.434,0.000,0.000,34.865
597,4.200,0.599,0.105,0.000,0.443,0.000,0.000,34.838
610,4.200,0.595,0.108,0.000,0.452,0.000,0.000,34.832
623,4.200,0.590,0.110,0.000,0.461,0.000,0.000,34.830
636,4.200,0.585,0.112,0.000,0.470,0.000,0.000,34.830
649,4.200,0.581,0.114,0.000,0.479,0.000,0.000,34.868
662,4.200,0.577,0.116,0.000,0.488,0.000,0.000,34.858
675,4.200,0.572,0.118,0.000,0.496,0.000,0.000,34.858
688,4.200,0.568,0.120,0.000,0.505,0.000,0.000,34.854
701,4.200,0.563,0.122,0.000,0.514,0.000,0.000,34.871
714,4.200,0.559,0.124,0.000,0.522,0.000,0.000,34.839
727,4.200,0.554,0.126,0.000,0.530,0.000,0.000,34.837
740,4.200,0.550,0.128,0.000,0.539,0.000,0.000,34.869
753,4.200,0.545,0.130,0.000,0.547,0.000,0.000,34.867
766,4.200,0.540,0.132,0.000,0.555,0.000,0.000,34.815
779,4.200,0.536,0.134,0.000,0.564,0.000,0.000,34.864
792,4.200,0.532,0.136,0.000,0.572,0.000,0.000,34.848
805,4.200,0.527,0.138,0.000,0.580,0.000,0.000,34.870
818,4.200,0.522,0.140,0.000,0.588,0.000,0.000,34.847
831,4.200,0.517,0.142,0.000,0.595,0.000,0.000,34.879
844,4.200,0.512,0.144,0.000,0.603,0.000,0.000,34.877
857,4.200,0.508,0.145,0.000,0.611,0.000,0.000,34.821
870,4.200,0.503,0.147,0.000,0.619,0.000,0.000,34.829
883,4.200,0.499,0.149,0.000,0.626,0.000,0.000,34.850
896,4.200,0.494,0.151,0.000,0.634,0.000,0.000,34.834
909,4.200,0.489,0.153,0.000,0.641,0.000,0.000,34.881
922,4.200,0.484,0.154,0.000,0.649,0.000,0.000,34.854
935,4.200,0.480,0.156,0.000,0.656,0.000,0.000,34.845
948,4.200,0.475,0.158,0.000,0.663,0.000,0.000,34.858
961,4.200,0.471,0.160,0.000,0.670,0.000,0.000,34.849
974,4.200,0.466,0.161,0.000,0.677,0.000,0.000,34.835
987,4.200,0.462,0.163,0.000,0.684,0.000,0.000,34.849
1000,4.200,0.458,0.165,0.000,0.691,0.000,0.000,34.872
1013,4.200,0.453,0.166,0.000,0.698,0.000,0.000,34.839
1026,4.200,0.449,0.168,0.000,0.705,0.000,0.000,34.845
1039,4.200,0.445,0.170,0.000,0.712,0.000,0.000,34.886
1052,4.200,0.440,0.171,0.000,0.719,0.000,0.000,34.866
1065,4.200,0.436,0.173,0.000,0.725,0.000,0.000,34.877
1078,4.200,0.432,0.174,0.000,0.732,0.000,0.000,34.859
1091,4.200,0.427,0.176,0.000,0.738,0.000,0.000,34.847
1104,4.200,0.423,0.177,0.000,0.745,0.000,0.000,34.901
1117,4.200,0.418,0.179,0.000,0.751,0.000,0.000,34.840
1130,4.200,0.414,0.180,0.000,0.758,0.000,0.000,34.838
1143,4.200,0.410,0.182,0.000,0.764,0.000,0.000,34.820
1156,4.200,0.405,0.183,0.000,0.770,0.000,0.000,34.807
1169,4.200,0.401,0.185,0.000,0.776,0.000,0.000,34.825
1182,4.200,0.396,0.186,0.000,0.782,0.000,0.000,34.825
1195,4.200,0.392,0.188,0.000,0.788,0.000,0.000,34.797
1208,4.200,0.388,0.189,0.000,0.794,0.000,0.000,34.835
1221,4.200,0.383,0.190,0.000,0.800,0.000,0.000,34.877
1234,4.200,0.380,0.192,0.000,0.806,0.000,0.000,34.832
1247,4.200,0.375,0.193,0.000,0.811,0.000,0.000,34.830
1260,4.200,0.371,0.195,0.000,0.817,0.000,0.000,34.804
1273,4.200,0.367,0.196,0.000,0.823,0.000,0.000,34.807
1286,4.200,0.363,0.197,0.000,0.828,0.000,0.000,34.848
1299,4.200,0.359,0.198,0.000,0.834,0.000,0.000,34.790
1312,4.200,0.355,0.200,0.000,0.839,0.000,0.000,34.797
1325,4.200,0.351,0.201,0.000,0.844,0.000,0.000,34.830
1338,4.200,0.346,0.202,0.000,0.850,0.000,0.000,34.826
1351,4.200,0.343,0.204,0.000,0.855,0.000,0.000,34.786
1364,4.200,0.338,0.205,0.000,0.860,0.000,0.000,34.806
1377,4.200,0.335,0.206,0.000,0.865,0.000,0.000,34.802
1390,4.200,0.331,0.207,0.000,0.870,0.000,0.000,34.800
1403,4.200,0.327,0.208,0.000,0.875,0.000,0.000,34.830
1416,4.200,0.323,0.210,0.000,0.880,0.000,0.000,34.797
1429,4.200,0.319,0.211,0.000,0.885,0.000,0.000,34.829
1442,4.200,0.315,0.212,0.000,0.890,0.000,0.000,34.766
1455,4.200,0.311,0.213,0.000,0.895,0.000,0.000,34.773
1468,4.200,0.307,0.214,0.000,0.899,0.000,0.000,34.808
1481,4.200,0.304,0.215,0.000,0.904,0.000,0.000,34.851
1494,4.200,0.300,0.216,0.000,0.909,0.000,0.000,34.777
1507,4.200,0.296,0.217,0.000,0.913,0.000,0.000,34.851
1520,4.200,0.292,0.218,0.000,0.917,0.000,0.000,34.806
1533,4.200,0.289,0.219,0.000,0.922,0.000,0.000,34.826
1546,4.200,0.285,0.221,0.000,0.926,0.000,0.000,34.788
1559,4.200,0.282,0.222,0.000,0.931,0.000,0.000,34.805
1572,4.200,0.278,0.223,0.000,0.935,0.000,0.000,34.778
1585,4.200,0.274,0.224,0.000,0.939,0.000,0.000,34.790
1598,4.200,0.271,0.225,0.000,0.943,0.000,0.000,34.796
1611,4.200,0.267,0.226,0.000,0.947,0.000,0.000,34.783
1624,4.200,0.264,0.226,0.000,0.951,0.000,0.000,34.764
1637,4.200,0.261,0.227,0.000,0.955,0.000,0.000,34.856
1650,4.200,0.257,0.228,0.000,0.959,0.000,0.000,34.766
1663,4.200,0.254,0.229,0.000,0.963,0.000,0.000,34.778
1676,4.200,0.251,0.230,0.000,0.967,0.000,0.000,34.760
1689,4.200,0.248,0.231,0.000,0.971,0.000,0.000,34.767
1702,4.200,0.244,0.232,0.000,0.974,0.000,0.000,34.793
1715,4.200,0.241,0.233,0.000,0.978,0.000,0.000,34.770
1728,4.200,0.238,0.234,0.000,0.982,0.000,0.000,34.772
1741,4.200,0.235,0.235,0.000,0.985,0.000,0.000,34.767
1754,4.200,0.231,0.235,0.000,0.989,0.000,0.000,34.764
1767,4.200,0.228,0.236,0.000,0.992,0.000,0.000,34.799
1780,4.200,0.225,0.237,0.000,0.996,0.000,0.000,34.768
1793,4.200,0.222,0.238,0.000,0.999,0.000,0.000,34.759
1806,4.200,0.220,0.239,0.000,1.002,0.000,0.000,34.782
1819,4.200,0.217,0.239,0.000,1.006,0.000,0.000,34.773
1832,4.200,0.214,0.240,0.000,1.009,0.000,0.000,34.762
1845,4.200,0.211,0.241,0.000,1.012,0.000,0.000,34.757
1858,4.200,0.208,0.242,0.000,1.015,0.000,0.000,34.711
1871,4.200,0.205,0.242,0.000,1.018,0.000,0.000,34.776
1884,4.200,0.202,0.243,0.000,1.022,0.000,0.000,34.753
1897,4.200,0.200,0.244,0.000,1.025,0.000,0.000,34.797
1910,4.200,0.197,0.245,0.000,1.028,0.000,0.000,34.789
1923,4.200,0.194,0.245,0.000,1.031,0.000,0.000,34.792
1936,4.200,0.192,0.246,0.000,1.034,0.000,0.000,34.773
1949,4.200,0.190,0.247,0.000,1.036,0.000,0.000,34.778
1962,4.200,0.187,0.247,0.000,1.039,0.000,0.000,34.794
1975,4.200,0.184,0.248,0.000,1.042,0.000,0.000,34.781
1988,4.200,0.182,0.249,0.000,1.045,0.000,0.000,34.782
2001,4.200,0.180,0.249,0.000,1.048,0.000,0.000,34.737
2014,4.200,0.177,0.250,0.000,1.050,0.000,0.000,34.769
2027,4.200,0.175,0.251,0.000,1.053,0.000,0.000,34.735
2040,4.200,0.173,0.251,0.000,1.056,0.000,0.000,34.751
2053,4.200,0.170,0.252,0.000,1.058,0.000,0.000,34.755
2066,4.200,0.168,0.253,0.000,1.061,0.000,0.000,34.769
2079,4.200,0.166,0.253,0.000,1.063,0.000,0.000,34.784
2092,4.200,0.164,0.254,0.000,1.066,0.000,0.000,34.766
2105,4.200,0.162,0.254,0.000,1.068,0.000,0.000,34.744
2118,4.200,0.160,0.255,0.000,1.071,0.000,0.000,34.764
2131,4.200,0.158,0.256,0.000,1.073,0.000,0.000,34.755
2144,4.200,0.156,0.256,0.000,1.075,0.000,0.000,34.750
2157,4.200,0.153,0.257,0.000,1.078,0.000,0.000,34.732
2170,4.200,0.152,0.257,0.000,1.080,0.000,0.000,34.731
2183,4.200,0.150,0.258,0.000,1.082,0.000,0.000,34.763
2196,4.200,0.148,0.258,0.000,1.085,0.000,0.000,34.762
2209,4.200,0.146,0.259,0.000,1.087,0.000,0.000,34.749
2222,4.200,0.144,0.259,0.000,1.089,0.000,0.000,34.725
2235,4.200,0.143,0.260,0.000,1.091,0.000,0.000,34.733
2248,4.200,0.141,0.260,0.000,1.093,0.000,0.000,34.730
2261,4.200,0.139,0.261,0.000,1.096,0.000,0.000,34.702
2274,4.200,0.137,0.261,0.000,1.098,0.000,0.000,34.719
2287,4.200,0.136,0.262,0.000,1.100,0.000,0.000,34.745
2300,4.200,0.134,0.262,0.000,1.102,0.000,0.000,34.719
2313,4.200,0.132,0.263,0.000,1.104,0.000,0.000,34.715
2326,4.200,0.131,0.263,0.000,1.106,0.000,0.000,34.735
2339,4.200,0.129,0.264,0.000,1.108,0.000,0.000,34.738
2352,4.200,0.127,0.264,0.000,1.110,0.000,0.000,34.729
2365,4.200,0.125,0.265,0.000,1.112,0.000,0.000,34.765
2378,4.200,0.124,0.265,0.000,1.114,0.000,0.000,34.702
2391,4.200,0.123,0.266,0.000,1.115,0.000,0.000,34.704
2404,4.200,0.121,0.266,0.000,1.117,0.000,0.000,34.729
2417,4.200,0.120,0.266,0.000,1.119,0.000,0.000,34.732
2430,4.200,0.118,0.267,0.000,1.121,0.000,0.000,34.712
2443,4.200,0.116,0.267,0.000,1.123,0.000,0.000,34.731
2456,4.200,0.115,0.268,0.000,1.124,0.000,0.000,34.736
2469,4.200,0.114,0.268,0.000,1.126,0.000,0.000,34.746
2482,4.200,0.112,0.269,0.000,1.128,0.000,0.000,34.748
2495,4.200,0.111,0.269,0.000,1.130,0.000,0.000,34.690
2508,4.200,0.110,0.269,0.000,1.131,0.000,0.000,34.743
2521,4.200,0.108,0.270,0.000,1.133,0.000,0.000,34.714
2534,4.200,0.107,0.270,0.000,1.135,0.000,0.000,34.709
2547,4.200,0.106,0.271,0.000,1.136,0.000,0.000,34.696
2560,4.200,0.104,0.271,0.000,1.138,0.000,0.000,34.721
2573,4.200,0.103,0.271,0.000,1.139,0.000,0.000,34.686
2586,4.200,0.102,0.272,0.000,1.141,0.000,0.000,34.695
2599,4.200,0.101,0.272,0.000,1.142,0.000,0.000,34.711
2612,4.200,0.099,0.272,0.000,1.144,0.000,0.000,34.710
2625,4.200,0.098,0.273,0.000,1.145,0.000,0.000,34.697
2638,4.200,0.097,0.273,0.000,1.147,0.000,0.000,34.692
2651,4.200,0.096,0.273,0.000,1.148,0.000,0.000,34.716
2664,4.200,0.095,0.274,0.000,1.150,0.000,0.000,34.683
2677,4.200,0.093,0.274,0.000,1.151,0.000,0.000,34.694
2690,4.200,0.093,0.274,0.000,1.153,0.000,0.000,34.698
2703,4.200,0.092,0.275,0.000,1.154,0.000,0.000,34.711
2716,4.200,0.090,0.275,0.000,1.155,0.000,0.000,34.666
2729,4.200,0.090,0.275,0.000,1.157,0.000,0.000,34.711
2742,4.200,0.088,0.276,0.000,1.158,0.000,0.000,34.732
2755,4.200,0.087,0.276,0.000,1.159,0.000,0.000,34.697
2768,4.200,0.087,0.276,0.000,1.161,0.000,0.000,34.689
2781,4.200,0.085,0.277,0.000,1.162,0.000,0.000,34.691
2794,4.200,0.085,0.277,0.000,1.163,0.000,0.000,34.704
2807,4.200,0.083,0.277,0.000,1.165,0.000,0.000,34.724
2820,4.200,0.083,0.278,0.000,1.166,0.000,0.000,34.696
2833,4.200,0.082,0.278,0.000,1.167,0.000,0.000,34.671
2846,4.200,0.081,0.278,0.000,1.168,0.000,0.000,34.734
2859,4.200,0.080,0.278,0.000,1.170,0.000,0.000,34.682
2872,4.200,0.079,0.279,0.000,1.171,0.000,0.000,34.716
2885,4.200,0.078,0.279,0.000,1.172,0.000,0.000,34.671
2898,4.200,0.077,0.279,0.000,1.173,0.000,0.000,34.712
2911,4.200,0.076,0.280,0.000,1.174,0.000,0.000,34.674
2924,4.200,0.075,0.280,0.000,1.176,0.000,0.000,34.673
2937,4.200,0.075,0.280,0.000,1.177,0.000,0.000,34.657
2950,4.200,0.074,0.280,0.000,1.178,0.000,0.000,34.705
2963,4.200,0.073,0.281,0.000,1.179,0.000,0.000,34.681
2976,4.200,0.072,0.281,0.000,1.180,0.000,0.000,34.652
2989,4.200,0.071,0.281,0.000,1.181,0.000,0.000,34.670
3002,4.200,0.070,0.281,0.000,1.182,0.000,0.000,34.706
3015,4.200,0.070,0.282,0.000,1.183,0.000,0.000,34.702
3028,4.200,0.069,0.282,0.000,1.184,0.000,0.000,34.729
3041,4.200,0.068,0.282,0.000,1.185,0.000,0.000,34.696
3054,4.200,0.068,0.282,0.000,1.186,0.000,0.000,34.690
3067,4.200,0.067,0.283,0.000,1.187,0.000,0.000,34.692
3080,4.200,0.066,0.283,0.000,1.188,0.000,0.000,34.684
3093,4.200,0.065,0.283,0.000,1.189,0.000,0.000,34.680
3105,4.190,0.000,0.283,0.000,1.190,0.000,0.000,34.685
3118,4.190,0.000,0.283,0.000,1.190,0.000,0.000,34.682
3131,4.189,0.000,0.283,0.000,1.190,0.000,0.000,34.668
3144,4.189,0.000,0.283,0.000,1.190,0.000,0.000,34.662
3157,4.189,0.000,0.283,0.000,1.190,0.000,0.000,34.702
3170,4.189,0.000,0.283,0.000,1.190,0.000,0.000,34.691
3183,4.188,0.000,0.283,0.000,1.190,0.000,0.000,34.689
3196,4.188,0.000,0.283,0.000,1.190,0.000,0.000,34.668
3209,4.188,0.000,0.283,0.000,1.190,0.000,0.000,34.662
3222,4.188,0.000,0.283,0.000,1.190,0.000,0.000,34.661
3235,4.188,0.000,0.283,0.000,1.190,0.000,0.000,34.679
3248,4.188,0.000,0.283,0.000,1.190,0.000,0.000,34.710
3261,4.188,0.000,0.283,0.000,1.190,0.000,0.000,34.664
3274,4.188,0.000,0.283,0.000,1.190,0.000,0.000,34.670
3287,4.187,0.000,0.283,0.000,1.190,0.000,0.000,34.683
3300,4.187,0.000,0.283,0.000,1.190,0.000,0.000,34.672
3313,4.187,0.000,0.283,0.000,1.190,0.000,0.000,34.686
3326,4.187,0.000,0.283,0.000,1.190,0.000,0.000,34.705
3339,4.187,0.000,0.283,0.000,1.190,0.000,0.000,34.694
3352,4.187,0.000,0.283,0.000,1.190,0.000,0.000,34.720
3365,4.187,0.000,0.283,0.000,1.190,0.000,0.000,34.640
3378,4.187,0.000,0.283,0.000,1.190,0.000,0.000,34.680
3391,4.187,0.000,0.283,0.000,1.190,0.000,0.000,34.663
3404,4.187,0.000,0.283,0.000,1.190,0.000,0.000,34.695
3417,4.187,0.000,0.283,0.000,1.190,0.000,0.000,34.669
3430,4.187,0.000,0.283,0.000,1.190,0.000,0.000,34.657
3443,4.187,0.000,0.283,0.000,1.190,0.000,0.000,34.752
3456,4.187,0.000,0.283,0.000,1.190,0.000,0.000,34.673
3469,4.186,0.000,0.283,0.000,1.190,0.000,0.000,34.706
3482,4.186,0.000,0.283,0.000,1.190,0.000,0.000,34.684
3495,4.186,0.000,0.283,0.000,1.190,0.000,0.000,34.709
3508,4.186,0.000,0.283,0.000,1.190,0.000,0.000,34.693
3521,4.186,0.000,0.283,0.000,1.190,0.000,0.000,34.725
3534,4.186,0.000,0.283,0.000,1.190,0.000,0.000,34.726
3547,4.186,0.000,0.283,0.000,1.190,0.000,0.000,34.676
3560,4.186,0.000,0.283,0.000,1.190,0.000,0.000,34.727
3573,4.186,0.000,0.283,0.000,1.190,0.000,0.000,34.706
3586,4.186,0.000,0.283,0.000,1.190,0.000,0.000,34.687
3599,4.186,0.000,0.283,0.000,1.190,0.000,0.000,34.729
3612,4.186,0.000,0.283,0.000,1.190,0.000,0.000,34.643
3625,4.186,0.000,0.283,0.000,1.190,0.000,0.000,34.681
3638,4.186,0.000,0.283,0.000,1.190,0.000,0.000,34.680
3651,4.186,0.000,0.283,0.000,1.190,0.000,0.000,34.671
3664,4.186,0.000,0.283,0.000,1.190,0.000,0.000,34.682
3677,4.186,0.000,0.283,0.000,1.190,0.000,0.000,34.680
3690,4.185,0.000,0.283,0.000,1.190,0.000,0.000,34.690
3703,4.186,0.000,0.283,0.000,1.190,0.000,0.000,34.652
3716,4.185,0.000,0.283,0.000,1.190,0.000,0.000,34.658
3729,4.185,0.000,0.283,0.000,1.190,0.000,0.000,34.636
3742,4.185,0.000,0.283,0.000,1.190,0.000,0.000,34.676
3755,4.185,0.000,0.283,0.000,1.190,0.000,0.000,34.646
3768,4.185,0.000,0.283,0.000,1.190,0.000,0.000,34.674
3781,4.185,0.000,0.283,0.000,1.190,0.000,0.000,34.681
3794,4.185,0.000,0.283,0.000,1.190,0.000,0.000,34.712
3807,4.185,0.000,0.283,0.000,1.190,0.000,0.000,34.709
3820,4.185,0.000,0.283,0.000,1.190,0.000,0.000,34.662
3833,4.185,0.000,0.283,0.000,1.190,0.000,0.000,34.714
3846,4.185,0.000,0.283,0.000,1.190,0.000,0.000,34.691
3859,4.185,0.000,0.283,0.000,1.190,0.000,0.000,34.668
3872,4.185,0.000,0.283,0.000,1.190,0.000,0.000,34.680
3885,4.185,0.000,0.283,0.000,1.190,0.000,0.000,34.658
3898,4.185,0.000,0.283,0.000,1.190,0.000,0.000,34.686
3911,4.185,0.000,0.283,0.000,1.190,0.000,0.000,34.668
3924,4.185,0.000,0.283,0.000,1.190,0.000,0.000,34.698
3937,4.185,0.000,0.283,0.000,1.190,0.000,0.000,34.639
3950,4.185,0.000,0.283,0.000,1.190,0.000,0.000,34.651
3963,4.185,0.000,0.283,0.000,1.190,0.000,0.000,34.686
3976,4.185,0.000,0.283,0.000,1.190,0.000,0.000,34.689
3989,4.185,0.000,0.283,0.000,1.190,0.000,0.000,34.701
4002,4.185,0.000,0.283,0.000,1.190,0.000,0.000,34.695
4015,4.185,0.000,0.283,0.000,1.190,0.000,0.000,34.681
4028,4.185,0.000,0.283,0.000,1.190,0.000,0.000,34.698
4041,4.185,0.000,0.283,0.000,1.190,0.000,0.000,34.738
4054,4.185,0.000,0.283,0.000,1.190,0.000,0.000,34.689
4067,4.185,0.000,0.283,0.000,1.190,0.000,0.000,34.653
4080,4.184,0.000,0.283,0.000,1.190,0.000,0.000,34.684
4093,4.184,0.000,0.283,0.000,1.190,0.000,0.000,34.673
4106,4.185,0.000,0.283,0.000,1.190,0.000,0.000,34.661
4119,4.184,0.000,0.283,0.000,1.190,0.000,0.000,34.618
4132,4.184,0.000,0.283,0.000,1.190,0.000,0.000,34.704
4145,4.184,0.000,0.283,0.000,1.190,0.000,0.000,34.664
4158,4.184,0.000,0.283,0.000,1.190,0.000,0.000,34.669
4171,4.184,0.000,0.283,0.000,1.190,0.000,0.000,34.695
4184,4.184,0.000,0.283,0.000,1.190,0.000,0.000,34.658
4197,4.184,0.000,0.283,0.000,1.190,0.000,0.000,34.656
4210,4.184,0.000,0.283,0.000,1.190,0.000,0.000,34.673
4223,4.184,0.000,0.283,0.000,1.190,0.000,0.000,34.655
4236,4.184,0.000,0.283,0.000,1.190,0.000,0.000,34.674
4249,4.184,0.000,0.283,0.000,1.190,0.000,0.000,34.676
4262,4.184,0.000,0.283,0.000,1.190,0.000,0.000,34.652
4275,4.184,0.000,0.283,0.000,1.190,0.000,0.000,34.678
4288,4.184,0.000,0.283,0.000,1.190,0.000,0.000,34.644
4301,4.184,0.000,0.283,0.000,1.190,0.000,0.000,34.688
4314,4.184,0.000,0.283,0.000,1.190,0.000,0.000,34.644
4327,4.184,0.000,0.283,0.000,1.190,0.000,0.000,34.664
4340,4.184,0.000,0.283,0.000,1.190,0.000,0.000,34.684
4353,4.184,0.000,0.283,0.000,1.190,0.000,0.000,34.664
4366,4.184,0.000,0.283,0.000,1.190,0.000,0.000,34.690
4379,4.184,0.000,0.283,0.000,1.190,0.000,0.000,34.672
4392,4.184,0.000,0.283,0.000,1.190,0.000,0.000,34.633
4405,4.184,0.000,0.283,0.000,1.190,0.000,0.000,34.673
4418,4.184,0.000,0.283,0.000,1.190,0.000,0.000,34.701
4431,4.184,0.000,0.283,0.000,1.190,0.000,0.000,34.663
4444,4.184,0.000,0.283,0.000,1.190,0.000,0.000,34.704
4457,4.184,0.000,0.283,0.000,1.190,0.000,0.000,34.691
4470,4.184,0.000,0.283,0.000,1.190,0.000,0.000,34.688
4483,4.184,0.000,0.283,0.000,1.190,0.000,0.000,34.672
4496,4.184,0.000,0.283,0.000,1.190,0.000,0.000,34.657
4509,4.184,0.000,0.283,0.000,1.190,0.000,0.000,34.673
4522,4.184,0.000,0.283,0.000,1.190,0.000,0.000,34.683
4535,4.184,0.000,0.283,0.000,1.190,0.000,0.000,34.687
4548,4.184,0.000,0.283,0.000,1.190,0.000,0.000,34.652
4561,4.184,0.000,0.283,0.000,1.190,0.000,0.000,34.623
4574,4.184,0.000,0.283,0.000,1.190,0.000,0.000,34.662
4587,4.183,0.000,0.283,0.000,1.190,0.000,0.000,34.623
4600,4.184,0.000,0.283,0.000,1.190,0.000,0.000,34.643
4613,4.183,0.000,0.283,0.000,1.190,0.000,0.000,34.628
4626,4.184,0.000,0.283,0.000,1.190,0.000,0.000,34.689
4639,4.183,0.000,0.283,0.000,1.190,0.000,0.000,34.679
4652,4.183,0.000,0.283,0.000,1.190,0.000,0.000,34.690
4665,4.183,0.000,0.283,0.000,1.190,0.000,0.000,34.667
4678,4.183,0.000,0.283,0.000,1.190,0.000,0.000,34.637
4691,4.183,0.000,0.283,0.000,1.190,0.000,0.000,34.702
4704,4.183,0.000,0.283,0.000,1.190,0.000,0.000,34.644
4717,4.183,0.000,0.283,0.000,1.190,0.000,0.000,34.660
4730,4.183,0.000,0.283,0.000,1.190,0.000,0.000,34.655
4743,4.183,0.000,0.283,0.000,1.190,0.000,0.000,34.629
4756,4.183,0.000,0.283,0.000,1.190,0.000,0.000,34.657
4769,4.183,0.000,0.283,0.000,1.190,0.000,0.000,34.653
4782,4.183,0.000,0.283,0.000,1.190,0.000,0.000,34.646
4795,4.183,0.000,0.283,0.000,1.190,0.000,0.000,34.641
4808,4.183,0.000,0.283,0.000,1.190,0.000,0.000,34.679
4821,4.183,0.000,0.283,0.000,1.190,0.000,0.000,34.626
4834,4.183,0.000,0.283,0.000,1.190,0.000,0.000,34.659
4847,4.183,0.000,0.283,0.000,1.190,0.000,0.000,34.666
4860,4.183,0.000,0.283,0.000,1.190,0.000,0.000,34.676
4873,4.183,0.000,0.283,0.000,1.190,0.000,0.000,34.700
4886,4.183,0.000,0.283,0.000,1.190,0.000,0.000,34.683
4899,4.183,0.000,0.283,0.000,1.190,0.000,0.000,34.631
4912,4.183,0.000,0.283,0.000,1.190,0.000,0.000,34.703
4925,4.183,0.000,0.283,0.000,1.190,0.000,0.000,34.630
4938,4.183,0.000,0.283,0.000,1.190,0.000,0.000,34.712
4951,4.183,0.000,0.283,0.000,1.190,0.000,0.000,34.650
4964,4.183,0.000,0.283,0.000,1.190,0.000,0.000,34.675
4977,4.183,0.000,0.283,0.000,1.190,0.000,0.000,34.632
4990,4.183,0.000,0.283,0.000,1.190,0.000,0.000,34.659
5003,4.183,0.000,0.283,0.000,1.190,0.000,0.000,34.655
5016,4.183,0.000,0.283,0.000,1.190,0.000,0.000,34.635
5029,4.183,0.000,0.283,0.000,1.190,0.000,0.000,34.664
5042,4.183,0.000,0.283,0.000,1.190,0.000,0.000,34.658
5055,4.183,0.000,0.283,0.000,1.190,0.000,0.000,34.650
5068,4.183,0.000,0.283,0.000,1.190,0.000,0.000,34.649
5081,4.183,0.000,0.283,0.000,1.190,0.000,0.000,34.653
5094,4.183,0.000,0.283,0.000,1.190,0.000,0.000,34.634
5107,4.183,0.000,0.283,0.000,1.190,0.000,0.000,34.620
5120,4.183,0.000,0.283,0.000,1.190,0.000,0.000,34.631
5133,4.183,0.000,0.283,0.000,1.190,0.000,0.000,34.664
5146,4.183,0.000,0.283,0.000,1.190,0.000,0.000,34.631
5159,4.183,0.000,0.283,0.000,1.190,0.000,0.000,34.636
5172,4.183,0.000,0.283,0.000,1.190,0.000,0.000,34.626
5185,4.183,0.000,0.283,0.000,1.190,0.000,0.000,34.625
5198,4.183,0.000,0.283,0.000,1.190,0.000,0.000,34.646
5211,4.183,0.000,0.283,0.000,1.190,0.000,0.000,34.623
5224,4.183,0.000,0.283,0.000,1.190,0.000,0.000,34.622
5237,4.183,0.000,0.283,0.000,1.190,0.000,0.000,34.633
5250,4.183,0.000,0.283,0.000,1.190,0.000,0.000,34.653
5263,4.183,0.000,0.283,0.000,1.190,0.000,0.000,34.644
5276,4.183,0.000,0.283,0.000,1.190,0.000,0.000,34.678
5289,4.183,0.000,0.283,0.000,1.190,0.000,0.000,34.660
5302,4.183,0.000,0.283,0.000,1.190,0.000,0.000,34.628
5315,4.183,0.000,0.283,0.000,1.190,0.000,0.000,34.698
5328,4.183,0.000,0.283,0.000,1.190,0.000,0.000,34.663
5341,4.183,0.000,0.283,0.000,1.190,0.000,0.000,34.675
5354,4.183,0.000,0.283,0.000,1.190,0.000,0.000,34.644
5367,4.182,0.000,0.283,0.000,1.190,0.000,0.000,34.643
5380,4.182,0.000,0.283,0.000,1.190,0.000,0.000,34.609
5393,4.182,0.000,0.283,0.000,1.190,0.000,0.000,34.653
5406,4.182,0.000,0.283,0.000,1.190,0.000,0.000,34.648
5419,4.182,0.000,0.283,0.000,1.190,0.000,0.000,34.666
5432,4.182,0.000,0.283,0.000,1.190,0.000,0.000,34.614
5445,4.182,0.000,0.283,0.000,1.190,0.000,0.000,34.625
5458,4.182,0.000,0.283,0.000,1.190,0.000,0.000,34.612
5471,4.182,0.000,0.283,0.000,1.190,0.000,0.000,34.619
5484,4.182,0.000,0.283,0.000,1.190,0.000,0.000,34.615
5497,4.182,0.000,0.283,0.000,1.190,0.000,0.000,34.635
5510,4.182,0.000,0.283,0.000,1.190,0.000,0.000,34.655
5523,4.182,0.000,0.283,0.000,1.190,0.000,0.000,34.660
5536,4.182,0.000,0.283,0.000,1.190,0.000,0.000,34.605
5549,4.182,0.000,0.283,0.000,1.190,0.000,0.000,34.623
5562,4.182,0.000,0.283,0.000,1.190,0.000,0.000,34.654
5575,4.182,0.000,0.283,0.000,1.190,0.000,0.000,34.635
5588,4.182,0.000,0.283,0.000,1.190,0.000,0.000,34.633
5601,4.182,0.000,0.283,0.000,1.190,0.000,0.000,34.586
5614,4.182,0.000,0.283,0.000,1.190,0.000,0.000,34.635
5627,4.182,0.000,0.283,0.000,1.190,0.000,0.000,34.672
5640,4.182,0.000,0.283,0.000,1.190,0.000,0.000,34.656
5653,4.182,0.000,0.283,0.000,1.190,0.000,0.000,34.604
5666,4.182,0.000,0.283,0.000,1.190,0.000,0.000,34.603
5679,4.182,0.000,0.283,0.000,1.190,0.000,0.000,34.648
5692,4.182,0.000,0.283,0.000,1.190,0.000,0.000,34.600
5705,4.182,0.000,0.283,0.000,1.190,0.000,0.000,34.607
5718,4.182,0.000,0.283,0.000,1.190,0.000,0.000,34.669
5731,4.182,0.000,0.283,0.000,1.190,0.000,0.000,34.612
5744,4.182,0.000,0.283,0.000,1.190,0.000,0.000,34.620
5757,4.182,0.000,0.283,0.000,1.190,0.000,0.000,34.608
5770,4.182,0.000,0.283,0.000,1.190,0.000,0.000,34.666
5783,4.182,0.000,0.283,0.000,1.190,0.000,0.000,34.605
5796,4.182,0.000,0.283,0.000,1.190,0.000,0.000,34.614
5809,4.182,0.000,0.283,0.000,1.190,0.000,0.000,34.682
5822,4.182,0.000,0.283,0.000,1.190,0.000,0.000,34.611
5835,4.182,0.000,0.283,0.000,1.190,0.000,0.000,34.667
5848,4.182,0.000,0.283,0.000,1.190,0.000,0.000,34.609
5861,4.182,0.000,0.283,0.000,1.190,0.000,0.000,34.636
5874,4.182,0.000,0.283,0.000,1.190,0.000,0.000,34.608
5887,4.182,0.000,0.283,0.000,1.190,0.000,0.000,34.644
5900,4.182,0.000,0.283,0.000,1.190,0.000,0.000,34.634
5913,4.182,0.000,0.283,0.000,1.190,0.000,0.000,34.652
5926,4.182,0.000,0.283,0.000,1.190,0.000,0.000,34.648
5939,4.182,0.000,0.283,0.000,1.190,0.000,0.000,34.655
5952,4.182,0.000,0.283,0.000,1.190,0.000,0.000,34.614
5965,4.182,0.000,0.283,0.000,1.190,0.000,0.000,34.627
5978,4.182,0.000,0.283,0.000,1.190,0.000,0.000,34.638
5991,4.182,0.000,0.283,0.000,1.190,0.000,0.000,34.626
6004,4.182,0.000,0.283,0.000,1.190,0.000,0.000,34.609
6017,4.182,0.000,0.283,0.000,1.190,0.000,0.000,34.643
6030,4.182,0.000,0.283,0.000,1.190,0.000,0.000,34.618
6043,4.182,0.000,0.283,0.000,1.190,0.000,0.000,34.636
6056,4.182,0.000,0.283,0.000,1.190,0.000,0.000,34.591
6069,4.182,0.000,0.283,0.000,1.190,0.000,0.000,34.619
6082,4.182,0.000,0.283,0.000,1.190,0.000,0.000,34.600
6095,4.182,0.000,0.283,0.000,1.190,0.000,0.000,34.611
6108,4.182,0.000,0.283,0.000,1.190,0.000,0.000,34.652
6121,4.182,0.000,0.283,0.000,1.190,0.000,0.000,34.637
6134,4.182,0.000,0.283,0.000,1.190,0.000,0.000,34.617
6147,4.182,0.000,0.283,0.000,1.190,0.000,0.000,34.603
6160,4.182,0.000,0.283,0.000,1.190,0.000,0.000,34.669
6173,4.182,0.000,0.283,0.000,1.190,0.000,0.000,34.608
6186,4.182,0.000,0.283,0.000,1.190,0.000,0.000,34.574
6199,4.182,0.000,0.283,0.000,1.190,0.000,0.000,34.605
6212,4.182,0.000,0.283,0.000,1.190,0.000,0.000,34.625
6225,4.182,0.000,0.283,0.000,1.190,0.000,0.000,34.610
6238,4.182,0.000,0.283,0.000,1.190,0.000,0.000,34.575
6251,4.182,0.000,0.283,0.000,1.190,0.000,0.000,34.578
6264,4.182,0.000,0.283,0.000,1.190,0.000,0.000,34.601
6277,4.182,0.000,0.283,0.000,1.190,0.000,0.000,34.601
6290,4.182,0.000,0.283,0.000,1.190,0.000,0.000,34.611
6303,4.182,0.000,0.283,0.000,1.190,0.000,0.000,34.626
6316,4.181,0.000,0.283,0.000,1.190,0.000,0.000,34.591
6329,4.181,0.000,0.283,0.000,1.190,0.000,0.000,34.605
6342,4.182,0.000,0.283,0.000,1.190,0.000,0.000,34.589
6355,4.182,0.000,0.283,0.000,1.190,0.000,0.000,34.605
6368,4.181,0.000,0.283,0.000,1.190,0.000,0.000,34.623
6381,4.181,0.000,0.283,0.000,1.190,0.000,0.000,34.596
6394,4.181,0.000,0.283,0.000,1.190,0.000,0.000,34.594
6407,4.182,0.000,0.283,0.000,1.190,0.000,0.000,34.594
6420,4.181,0.000,0.283,0.000,1.190,0.000,0.000,34.549
6433,4.181,0.000,0.283,0.000,1.190,0.000,0.000,34.584
6446,4.181,0.000,0.283,0.000,1.190,0.000,0.000,34.561
6459,4.181,0.000,0.283,0.000,1.190,0.000,0.000,34.564
6472,4.181,0.000,0.283,0.000,1.190,0.000,0.000,34.557
6485,4.181,0.000,0.283,0.000,1.190,0.000,0.000,34.595
6498,4.181,0.000,0.283,0.000,1.190,0.000,0.000,34.600
6511,4.181,0.000,0.283,0.000,1.190,0.000,0.000,34.589
6524,4.181,0.000,0.283,0.000,1.190,0.000,0.000,34.594
6537,4.181,0.000,0.283,0.000,1.190,0.000,0.000,34.651
6550,4.181,0.000,0.283,0.000,1.190,0.000,0.000,34.627
6563,4.181,0.000,0.283,0.000,1.190,0.000,0.000,34.599
6576,4.181,0.000,0.283,0.000,1.190,0.000,0.000,34.602
6589,4.181,0.000,0.283,0.000,1.190,0.000,0.000,34.575
6602,4.181,0.000,0.283,0.000,1.190,0.000,0.000,34.623
6615,4.181,0.000,0.283,0.000,1.190,0.000,0.000,34.591
6628,4.181,0.000,0.283,0.000,1.190,0.000,0.000,34.637
6641,4.181,0.000,0.283,0.000,1.190,0.000,0.000,34.616
6654,4.181,0.000,0.283,0.000,1.190,0.000,0.000,34.595
6667,4.181,0.000,0.283,0.000,1.190,0.000,0.000,34.571
6680,4.181,0.000,0.283,0.000,1.190,0.000,0.000,34.606
6693,4.181,0.000,0.283,0.000,1.190,0.000,0.000,34.613
6705,3.366,-10.050,0.283,0.022,1.190,0.075,-0.003,34.755
6718,3.330,-10.048,0.283,0.059,1.190,0.197,-0.002,35.452
6731,3.308,-10.049,0.283,0.095,1.190,0.317,-0.002,36.131
6744,3.286,-10.049,0.283,0.131,1.190,0.437,-0.002,36.995
6757,3.269,-10.050,0.283,0.167,1.190,0.556,-0.002,37.692
6770,3.253,-10.049,0.283,0.204,1.190,0.674,-0.001,38.596
6783,3.236,-10.049,0.283,0.240,1.190,0.792,-0.001,39.470
6796,3.218,-10.049,0.283,0.276,1.190,0.909,-0.001,40.105
6809,3.202,-10.049,0.283,0.313,1.190,1.026,-0.001,40.818
6822,3.185,-10.049,0.283,0.349,1.190,1.141,-0.001,41.504
6835,3.170,-10.050,0.283,0.385,1.190,1.257,-0.001,42.204
6848,3.153,-10.049,0.283,0.422,1.190,1.371,-0.001,42.891
6861,3.136,-10.050,0.283,0.458,1.190,1.486,-0.001,43.380
6874,3.120,-10.049,0.283,0.494,1.190,1.599,-0.001,43.972
6887,3.103,-10.049,0.283,0.530,1.190,1.712,-0.002,44.535
6900,3.086,-10.049,0.283,0.567,1.190,1.824,-0.001,45.103
6913,3.068,-10.049,0.283,0.603,1.190,1.936,-0.002,45.542
6926,3.052,-10.049,0.283,0.639,1.190,2.047,-0.002,46.171
6939,3.035,-10.049,0.283,0.676,1.190,2.157,-0.001,46.623
6952,3.022,-10.049,0.283,0.712,1.190,2.267,-0.001,47.072
6965,3.009,-10.049,0.283,0.748,1.190,2.377,-0.001,47.579
6978,2.995,-10.049,0.283,0.784,1.190,2.486,-0.001,47.977
6991,2.981,-10.050,0.283,0.821,1.190,2.594,-0.001,48.435
7004,2.967,-10.049,0.283,0.857,1.190,2.702,-0.001,48.820
7017,2.954,-10.049,0.283,0.893,1.190,2.809,-0.001,49.273
7030,2.940,-10.050,0.283,0.930,1.190,2.916,0.000,49.774
7043,2.927,-10.050,0.283,0.966,1.190,3.023,-0.001,50.063
7056,2.913,-10.050,0.283,1.002,1.190,3.129,-0.001,50.478
7069,2.900,-10.050,0.283,1.038,1.190,3.234,-0.001,50.901
7082,2.888,-10.051,0.283,1.075,1.190,3.339,-0.002,51.205
7095,2.874,-10.050,0.283,1.111,1.190,3.444,-0.001,51.548
7108,2.862,-10.049,0.283,1.147,1.190,3.548,-0.001,52.091
7121,2.849,-10.050,0.283,1.184,1.190,3.652,-0.001,52.524
7134,2.837,-10.050,0.283,1.220,1.190,3.755,-0.001,52.632
7147,2.826,-10.050,0.283,1.256,1.190,3.858,-0.001,53.073
7160,2.814,-10.050,0.283,1.292,1.190,3.960,-0.001,53.414
7173,2.803,-10.051,0.283,1.329,1.190,4.062,-0.001,53.639
7186,2.792,-10.050,0.283,1.365,1.190,4.163,-0.001,54.144
7199,2.782,-10.051,0.283,1.401,1.190,4.265,-0.001,54.419
7212,2.772,-10.050,0.283,1.438,1.190,4.365,-0.001,54.793
7225,2.763,-10.050,0.283,1.474,1.190,4.466,0.000,55.044
7238,2.751,-10.050,0.283,1.510,1.190,4.566,-0.001,55.395
7251,2.741,-10.050,0.283,1.547,1.190,4.665,-0.001,55.595
7264,2.732,-10.051,0.283,1.583,1.190,4.765,0.000,55.887
7277,2.722,-10.050,0.283,1.619,1.190,4.864,0.000,56.157
7290,2.712,-10.050,0.283,1.655,1.190,4.962,-0.001,56.491
7303,2.701,-10.050,0.283,1.692,1.190,5.061,-0.001,56.752
7316,2.692,-10.052,0.283,1.728,1.190,5.158,0.000,57.028
7329,2.681,-10.051,0.283,1.764,1.190,5.256,-0.001,57.347
7342,2.671,-10.050,0.283,1.801,1.190,5.353,-0.001,57.667
7355,2.661,-10.051,0.283,1.837,1.190,5.450,-0.001,57.895
7368,2.650,-10.050,0.283,1.873,1.190,5.546,-0.001,58.275
7381,2.640,-10.051,0.283,1.909,1.190,5.642,0.000,58.342
7394,2.630,-10.051,0.283,1.946,1.190,5.738,-0.001,58.641
7407,2.619,-10.052,0.283,1.982,1.190,5.833,-0.001,58.832
7420,2.608,-10.051,0.283,2.018,1.190,5.928,-0.001,59.253
7433,2.598,-10.051,0.283,2.055,1.190,6.023,-0.001,59.312
7446,2.587,-10.050,0.283,2.091,1.190,6.117,-0.001,59.603
7459,2.576,-10.052,0.283,2.127,1.190,6.210,-0.001,59.989
7472,2.565,-10.052,0.283,2.164,1.190,6.304,-0.001,60.179
7485,2.554,-10.051,0.283,2.200,1.190,6.397,0.000,60.509
7498,2.544,-10.051,0.283,2.236,1.190,6.489,0.000,60.729
7511,2.532,-10.052,0.283,2.272,1.190,6.581,-0.001,60.948
7524,2.521,-10.051,0.283,2.309,1.190,6.673,-0.001,61.099
7537,2.510,-10.051,0.283,2.345,1.190,6.764,-0.001,61.432
7550,3.285,0.000,0.283,2.377,1.190,6.844,0.821,61.676
7563,3.397,0.000,0.283,2.377,1.190,6.844,0.004,61.522
7576,3.428,0.000,0.283,2.377,1.190,6.844,0.001,60.880
7589,3.440,0.000,0.283,2.377,1.190,6.844,0.001,60.383
7602,3.446,0.000,0.283,2.377,1.190,6.844,0.000,59.614
7615,3.450,0.000,0.283,2.377,1.190,6.844,0.000,58.896
7628,3.453,0.000,0.283,2.377,1.190,6.844,0.000,58.054
7641,3.456,0.000,0.283,2.377,1.190,6.844,0.000,57.143
7654,3.459,0.000,0.283,2.377,1.190,6.844,0.000,56.404
7667,3.463,0.000,0.283,2.377,1.190,6.844,0.000,55.749
7680,3.468,0.000,0.283,2.377,1.190,6.844,0.000,54.995
7693,3.473,0.000,0.283,2.377,1.190,6.844,0.001,54.220
7706,3.478,0.000,0.283,2.377,1.190,6.844,0.001,53.700
7719,3.483,0.000,0.283,2.377,1.190,6.844,0.000,52.923
7732,3.487,0.000,0.283,2.377,1.190,6.844,0.000,52.305
7745,3.492,0.000,0.283,2.377,1.190,6.844,0.000,51.618
7758,3.495,0.000,0.283,2.377,1.190,6.844,0.000,50.899
7771,3.499,0.000,0.283,2.377,1.190,6.844,0.000,50.393
7784,3.501,0.000,0.283,2.377,1.190,6.844,0.000,49.849
7797,3.504,0.000,0.283,2.377,1.190,6.844,0.000,49.327
7810,3.506,0.000,0.283,2.377,1.190,6.844,0.000,48.729
7823,3.508,0.000,0.283,2.377,1.190,6.844,0.000,48.222
7836,3.510,0.000,0.283,2.377,1.190,6.844,0.000,47.772
7849,3.511,0.000,0.283,2.377,1.190,6.844,0.000,47.221
7862,3.513,0.000,0.283,2.377,1.190,6.844,0.000,46.842
7875,3.514,0.000,0.283,2.377,1.190,6.844,0.000,46.319
7888,3.516,0.000,0.283,2.377,1.190,6.844,0.000,45.834
7901,3.517,0.000,0.283,2.377,1.190,6.844,0.000,45.509
7914,3.518,0.000,0.283,2.377,1.190,6.844,0.000,45.054
7927,3.519,0.000,0.283,2.377,1.190,6.844,0.000,44.777
7940,3.520,0.000,0.283,2.377,1.190,6.844,0.000,44.435
7953,3.521,0.000,0.283,2.377,1.190,6.844,0.000,44.131
7966,3.522,0.000,0.283,2.377,1.190,6.844,0.000,43.740
7979,3.523,0.000,0.283,2.377,1.190,6.844,0.000,43.339
7992,3.524,0.000,0.283,2.377,1.190,6.844,0.000,43.143
8005,3.524,0.000,0.283,2.377,1.190,6.844,0.000,42.843
8018,3.525,0.000,0.283,2.377,1.190,6.844,0.000,42.571
8031,3.526,0.000,0.283,2.377,1.190,6.844,0.000,42.215
8044,3.527,0.000,0.283,2.377,1.190,6.844,0.000,42.061
8057,3.527,0.000,0.283,2.377,1.190,6.844,0.000,41.840
8070,3.528,0.000,0.283,2.377,1.190,6.844,0.000,41.533
8083,3.528,0.000,0.283,2.377,1.190,6.844,0.000,41.308
8096,3.529,0.000,0.283,2.377,1.190,6.844,0.000,41.074
8109,3.529,0.000,0.283,2.377,1.190,6.844,0.000,40.886
8122,3.530,0.000,0.283,2.377,1.190,6.844,0.000,40.679
8135,3.530,0.000,0.283,2.377,1.190,6.844,0.000,40.474
8148,3.530,0.000,0.283,2.377,1.190,6.844,0.000,40.363
8161,3.531,0.000,0.283,2.377,1.190,6.844,0.000,40.081
8174,3.531,0.000,0.283,2.377,1.190,6.844,0.000,39.927
8187,3.531,0.000,0.283,2.377,1.190,6.844,0.000,39.660
8200,3.532,0.000,0.283,2.377,1.190,6.844,0.000,39.557
8213,3.532,0.000,0.283,2.377,1.190,6.844,0.000,39.359
8226,3.532,0.000,0.283,2.377,1.190,6.844,0.000,39.182
8239,3.532,0.000,0.283,2.377,1.190,6.844,0.000,39.106
8252,3.533,0.000,0.283,2.377,1.190,6.844,0.000,38.935
8265,3.533,0.000,0.283,2.377,1.190,6.844,0.000,38.810
8278,3.533,0.000,0.283,2.377,1.190,6.844,0.000,38.636
8291,3.533,0.000,0.283,2.377,1.190,6.844,0.000,38.513
8304,3.534,0.000,0.283,2.377,1.190,6.844,0.000,38.409
8317,3.534,0.000,0.283,2.377,1.190,6.844,0.000,38.293
8330,3.534,0.000,0.283,2.377,1.190,6.844,0.000,38.152
8343,3.534,0.000,0.283,2.377,1.190,6.844,0.000,38.051
8356,3.534,0.000,0.283,2.377,1.190,6.844,0.000,37.953
8369,3.534,0.000,0.283,2.377,1.190,6.844,0.000,37.836
8382,3.535,0.000,0.283,2.377,1.190,6.844,0.000,37.721
8395,3.535,0.000,0.283,2.377,1.190,6.844,0.000,37.647
8408,3.535,0.000,0.283,2.377,1.190,6.844,0.000,37.520
8421,3.535,0.000,0.283,2.377,1.190,6.844,0.000,37.488
8434,3.535,0.000,0.283,2.377,1.190,6.844,0.000,37.366
8447,3.535,0.000,0.283,2.377,1.190,6.844,0.000,37.291
8460,3.535,0.000,0.283,2.377,1.190,6.844,0.000,37.206
8473,3.536,0.000,0.283,2.377,1.190,6.844,0.000,37.117
8486,3.536,0.000,0.283,2.377,1.190,6.844,0.000,37.014
8499,3.536,0.000,0.283,2.377,1.190,6.844,0.000,36.989
8512,3.536,0.000,0.283,2.377,1.190,6.844,0.000,36.860
8525,3.536,0.000,0.283,2.377,1.190,6.844,0.000,36.790
8538,3.536,0.000,0.283,2.377,1.190,6.844,0.000,36.776
8551,3.536,0.000,0.283,2.377,1.190,6.844,0.000,36.670
8564,3.536,0.000,0.283,2.377,1.190,6.844,0.000,36.612
8577,3.536,0.000,0.283,2.377,1.190,6.844,0.000,36.604
8590,3.536,0.000,0.283,2.377,1.190,6.844,0.000,36.534
8603,3.536,0.000,0.283,2.377,1.190,6.844,0.000,36.486
8616,3.537,0.000,0.283,2.377,1.190,6.844,0.000,36.394
8629,3.537,0.000,0.283,2.377,1.190,6.844,0.000,36.330
8642,3.537,0.000,0.283,2.377,1.190,6.844,0.000,36.337
8655,3.537,0.000,0.283,2.377,1.190,6.844,0.000,36.238
8668,3.537,0.000,0.283,2.377,1.190,6.844,0.000,36.184
8681,3.537,0.000,0.283,2.377,1.190,6.844,0.000,36.163
8694,3.537,0.000,0.283,2.377,1.190,6.844,0.000,36.166
8707,3.537,0.000,0.283,2.377,1.190,6.844,0.000,36.105
8720,3.537,0.000,0.283,2.377,1.190,6.844,0.000,36.029
8733,3.537,0.000,0.283,2.377,1.190,6.844,0.000,35.994
8746,3.537,0.000,0.283,2.377,1.190,6.844,0.000,35.955
8759,3.537,0.000,0.283,2.377,1.190,6.844,0.000,35.888
8772,3.537,0.000,0.283,2.377,1.190,6.844,0.000,35.855
8785,3.537,0.000,0.283,2.377,1.190,6.844,0.000,35.837
8798,3.538,0.000,0.283,2.377,1.190,6.844,0.000,35.812
8811,3.538,0.000,0.283,2.377,1.190,6.844,0.000,35.777
8824,3.538,0.000,0.283,2.377,1.190,6.844,0.000,35.758
8837,3.538,0.000,0.283,2.377,1.190,6.844,0.000,35.717
8850,3.538,0.000,0.283,2.377,1.190,6.844,0.000,35.693
8863,3.538,0.000,0.283,2.377,1.190,6.844,0.000,35.650
8876,3.538,0.000,0.283,2.377,1.190,6.844,0.000,35.632
8889,3.538,0.000,0.283,2.377,1.190,6.844,0.000,35.568
8902,3.538,0.000,0.283,2.377,1.190,6.844,0.000,35.534
8915,3.538,0.000,0.283,2.377,1.190,6.844,0.000,35.504
8928,3.538,0.000,0.283,2.377,1.190,6.844,0.000,35.486
8941,3.538,0.000,0.283,2.377,1.190,6.844,0.000,35.494
8954,3.538,0.000,0.283,2.377,1.190,6.844,0.000,35.446
8967,3.538,0.000,0.283,2.377,1.190,6.844,0.000,35.398
8980,3.538,0.000,0.283,2.377,1.190,6.844,0.000,35.443
8993,3.538,0.000,0.283,2.377,1.190,6.844,0.000,35.378
9006,3.538,0.000,0.283,2.377,1.190,6.844,0.000,35.371
9019,3.538,0.000,0.283,2.377,1.190,6.844,0.000,35.311
9032,3.538,0.000,0.283,2.377,1.190,6.844,0.000,35.311
9045,3.539,0.000,0.283,2.377,1.190,6.844,0.000,35.292
9058,3.539,0.000,0.283,2.377,1.190,6.844,0.000,35.256
9071,3.539,0.000,0.283,2.377,1.190,6.844,0.000,35.288
9084,3.539,0.000,0.283,2.377,1.190,6.844,0.000,35.232
9097,3.539,0.000,0.283,2.377,1.190,6.844,0.000,35.214
9110,3.539,0.000,0.283,2.377,1.190,6.844,0.000,35.213
9123,3.539,0.000,0.283,2.377,1.190,6.844,0.000,35.202
9136,3.539,0.000,0.283,2.377,1.190,6.844,0.000,35.170
9149,3.539,0.000,0.283,2.377,1.190,6.844,0.000,35.136
9162,3.539,0.000,0.283,2.377,1.190,6.844,0.000,35.144
9175,3.539,0.000,0.283,2.377,1.190,6.844,0.000,35.189
9188,3.539,0.000,0.283,2.377,1.190,6.844,0.000,35.110
9201,3.539,0.000,0.283,2.377,1.190,6.844,0.000,35.108
9214,3.539,0.000,0.283,2.377,1.190,6.844,0.000,35.084
9227,3.539,0.000,0.283,2.377,1.190,6.844,0.000,35.097
9240,3.539,0.000,0.283,2.377,1.190,6.844,0.000,35.083
9253,3.539,0.000,0.283,2.377,1.190,6.844,0.000,35.067
9266,3.539,0.000,0.283,2.377,1.190,6.844,0.000,35.036
9279,3.539,0.000,0.283,2.377,1.190,6.844,0.000,35.043
9292,3.539,0.000,0.283,2.377,1.190,6.844,0.000,35.006
9305,3.539,0.000,0.283,2.377,1.190,6.844,0.000,35.002
9318,3.539,0.000,0.283,2.377,1.190,6.844,0.000,34.989
9331,3.539,0.000,0.283,2.377,1.190,6.844,0.000,35.015
9344,3.539,0.000,0.283,2.377,1.190,6.844,0.000,34.970
9357,3.539,0.000,0.283,2.377,1.190,6.844,0.000,34.999
9370,3.539,0.000,0.283,2.377,1.190,6.844,0.000,34.982
9383,3.539,0.000,0.283,2.377,1.190,6.844,0.000,34.955
9396,3.539,0.000,0.283,2.377,1.190,6.844,0.000,34.942
9409,3.539,0.000,0.283,2.377,1.190,6.844,0.000,34.937
9422,3.539,0.000,0.283,2.377,1.190,6.844,0.000,34.929
9435,3.540,0.000,0.283,2.377,1.190,6.844,0.000,34.945
9448,3.540,0.000,0.283,2.377,1.190,6.844,0.000,34.939
9461,3.540,0.000,0.283,2.377,1.190,6.844,0.000,34.955
9474,3.540,0.000,0.283,2.377,1.190,6.844,0.000,34.902
9487,3.540,0.000,0.283,2.377,1.190,6.844,0.000,34.902
9500,3.540,0.000,0.283,2.377,1.190,6.844,0.000,34.883
9513,3.540,0.000,0.283,2.377,1.190,6.844,0.000,34.908
9526,3.540,0.000,0.283,2.377,1.190,6.844,0.000,34.877
9539,3.540,0.000,0.283,2.377,1.190,6.844,0.000,34.888
9552,3.540,0.000,0.283,2.377,1.190,6.844,0.000,34.890
9565,3.540,0.000,0.283,2.377,1.190,6.844,0.000,34.850
9578,3.540,0.000,0.283,2.377,1.190,6.844,0.000,34.882
9591,3.540,0.000,0.283,2.377,1.190,6.844,0.000,34.890
9604,3.540,0.000,0.283,2.377,1.190,6.844,0.000,34.855
9617,3.540,0.000,0.283,2.377,1.190,6.844,0.000,34.802
9630,3.540,0.000,0.283,2.377,1.190,6.844,0.000,34.801
9643,3.540,0.000,0.283,2.377,1.190,6.844,0.000,34.844
9656,3.540,0.000,0.283,2.377,1.190,6.844,0.000,34.822
9669,3.540,0.000,0.283,2.377,1.190,6.844,0.000,34.794
9682,3.540,0.000,0.283,2.377,1.190,6.844,0.000,34.806
9695,3.540,0.000,0.283,2.377,1.190,6.844,0.000,34.794
9708,3.540,0.000,0.283,2.377,1.190,6.844,0.000,34.818
9721,3.540,0.000,0.283,2.377,1.190,6.844,0.000,34.784
9734,3.540,0.000,0.283,2.377,1.190,6.844,0.000,34.847
9747,3.540,0.000,0.283,2.377,1.190,6.844,0.000,34.810
9760,3.540,0.000,0.283,2.377,1.190,6.844,0.000,34.814
9773,3.540,0.000,0.283,2.377,1.190,6.844,0.000,34.789
9786,3.540,0.000,0.283,2.377,1.190,6.844,0.000,34.766
9799,3.540,0.000,0.283,2.377,1.190,6.844,0.000,34.779
9812,3.540,0.000,0.283,2.377,1.190,6.844,0.000,34.806
9825,3.540,0.000,0.283,2.377,1.190,6.844,0.000,34.784
9838,3.540,0.000,0.283,2.377,1.190,6.844,0.000,34.751
9851,3.540,0.000,0.283,2.377,1.190,6.844,0.000,34.776
9864,3.540,0.000,0.283,2.377,1.190,6.844,0.000,34.750
9877,3.540,0.000,0.283,2.377,1.190,6.844,0.000,34.737
9890,3.540,0.000,0.283,2.377,1.190,6.844,0.000,34.751
9903,3.540,0.000,0.283,2.377,1.190,6.844,0.000,34.718
9916,3.540,0.000,0.283,2.377,1.190,6.844,0.000,34.803
9929,3.540,0.000,0.283,2.377,1.190,6.844,0.000,34.773
9942,3.540,0.000,0.283,2.377,1.190,6.844,0.000,34.764
9955,3.540,0.000,0.283,2.377,1.190,6.844,0.000,34.761
9968,3.540,0.000,0.283,2.377,1.190,6.844,0.000,34.740
9981,3.540,0.000,0.283,2.377,1.190,6.844,0.000,34.743
9994,3.540,0.000,0.283,2.377,1.190,6.844,0.000,34.723
10007,3.540,0.000,0.283,2.377,1.190,6.844,0.000,34.745
10020,3.541,0.000,0.283,2.377,1.190,6.844,0.000,34.735
10033,3.540,0.000,0.283,2.377,1.190,6.844,0.000,34.729
10046,3.541,0.000,0.283,2.377,1.190,6.844,0.000,34.724
10059,3.540,0.000,0.283,2.377,1.190,6.844,0.000,34.710
10072,3.541,0.000,0.283,2.377,1.190,6.844,0.000,34.706
10085,3.541,0.000,0.283,2.377,1.190,6.844,0.000,34.738
10098,3.541,0.000,0.283,2.377,1.190,6.844,0.000,34.703
10111,3.541,0.000,0.283,2.377,1.190,6.844,0.000,34.724
10124,3.541,0.000,0.283,2.377,1.190,6.844,0.000,34.726
10137,3.541,0.000,0.283,2.377,1.190,6.844,0.000,34.742
10150,3.541,0.000,0.283,2.377,1.190,6.844,0.000,34.748
10163,3.541,0.000,0.283,2.377,1.190,6.844,0.000,34.724
10176,3.541,0.000,0.283,2.377,1.190,6.844,0.000,34.720
10189,3.541,0.000,0.283,2.377,1.190,6.844,0.000,34.708
10202,3.541,0.000,0.283,2.377,1.190,6.844,0.000,34.705
10215,3.541,0.000,0.283,2.377,1.190,6.844,0.000,34.717
10228,3.541,0.000,0.283,2.377,1.190,6.844,0.000,34.716
10241,3.541,0.000,0.283,2.377,1.190,6.844,0.000,34.709
10254,3.541,0.000,0.283,2.377,1.190,6.844,0.000,34.715
10267,3.541,0.000,0.283,2.377,1.190,6.844,0.000,34.735
10280,3.541,0.000,0.283,2.377,1.190,6.844,0.000,34.672
10293,3.541,0.000,0.283,2.377,1.190,6.844,0.000,34.681
10306,3.541,0.000,0.283,2.377,1.190,6.844,0.000,34.705
10319,3.541,0.000,0.283,2.377,1.190,6.844,0.000,34.668
10332,3.541,0.000,0.283,2.377,1.190,6.844,0.000,34.702
10345,3.541,0.000,0.283,2.377,1.190,6.844,0.000,34.716
10358,3.541,0.000,0.283,2.377,1.190,6.844,0.000,34.712
10371,3.541,0.000,0.283,2.377,1.190,6.844,0.000,34.713
10384,3.541,0.000,0.283,2.377,1.190,6.844,0.000,34.698
10397,3.541,0.000,0.283,2.377,1.190,6.844,0.000,34.704
10410,3.541,0.000,0.283,2.377,1.190,6.844,0.000,34.700
10423,3.541,0.000,0.283,2.377,1.190,6.844,0.000,34.727
10436,3.541,0.000,0.283,2.377,1.190,6.844,0.000,34.731
10449,3.541,0.000,0.283,2.377,1.190,6.844,0.000,34.782
10462,3.541,0.000,0.283,2.377,1.190,6.844,0.000,34.696
10475,3.541,0.000,0.283,2.377,1.190,6.844,0.000,34.729
10488,3.541,0.000,0.283,2.377,1.190,6.844,0.000,34.685
10501,3.541,0.000,0.283,2.377,1.190,6.844,0.000,34.686
10514,3.541,0.000,0.283,2.377,1.190,6.844,0.000,34.713
10527,3.541,0.000,0.283,2.377,1.190,6.844,0.000,34.685
10540,3.541,0.000,0.283,2.377,1.190,6.844,0.000,34.694
10553,3.541,0.000,0.283,2.377,1.190,6.844,0.000,34.680
10566,3.541,0.000,0.283,2.377,1.190,6.844,0.000,34.660
10579,3.541,0.000,0.283,2.377,1.190,6.844,0.000,34.699
10592,3.541,0.000,0.283,2.377,1.190,6.844,0.000,34.689
10605,3.541,0.000,0.283,2.377,1.190,6.844,0.000,34.671
10618,3.541,0.000,0.283,2.377,1.190,6.844,0.000,34.700
10631,3.541,0.000,0.283,2.377,1.190,6.844,0.000,34.716
10644,3.541,0.000,0.283,2.377,1.190,6.844,0.000,34.692
10657,3.541,0.000,0.283,2.377,1.190,6.844,0.000,34.671
10670,3.541,0.000,0.283,2.377,1.190,6.844,0.000,34.711
10683,3.541,0.000,0.283,2.377,1.190,6.844,0.000,34.659
10696,3.541,0.000,0.283,2.377,1.190,6.844,0.000,34.698
10709,3.541,0.000,0.283,2.377,1.190,6.844,0.000,34.696
10722,3.541,0.000,0.283,2.377,1.190,6.844,0.000,34.708
10735,3.541,0.000,0.283,2.377,1.190,6.844,0.000,34.701
10748,3.541,0.000,0.283,2.377,1.190,6.844,0.000,34.717
10761,3.541,0.000,0.283,2.377,1.190,6.844,0.000,34.696
10774,3.541,0.000,0.283,2.377,1.190,6.844,0.000,34.711
10787,3.541,0.000,0.283,2.377,1.190,6.844,0.000,34.704
10800,3.541,0.000,0.283,2.377,1.190,6.844,0.000,34.719
10813,3.541,0.000,0.283,2.377,1.190,6.844,0.000,34.654
10826,3.541,0.000,0.283,2.377,1.190,6.844,0.000,34.704
10839,3.541,0.000,0.283,2.377,1.190,6.844,0.000,34.675
10852,3.541,0.000,0.283,2.377,1.190,6.844,0.000,34.665
10865,3.541,0.000,0.283,2.377,1.190,6.844,0.000,34.685
10878,3.541,0.000,0.283,2.377,1.190,6.844,0.000,34.660
10891,3.541,0.000,0.283,2.377,1.190,6.844,0.000,34.692
10904,3.541,0.000,0.283,2.377,1.190,6.844,0.000,34.664
10917,3.541,0.000,0.283,2.377,1.190,6.844,0.000,34.647
10930,3.541,0.000,0.283,2.377,1.190,6.844,0.000,34.699
10943,3.541,0.000,0.283,2.377,1.190,6.844,0.000,34.654
10956,3.541,0.000,0.283,2.377,1.190,6.844,0.000,34.725
10969,3.542,0.000,0.283,2.377,1.190,6.844,0.000,34.690
10982,3.541,0.000,0.283,2.377,1.190,6.844,0.000,34.679
10995,3.542,0.000,0.283,2.377,1.190,6.844,0.000,34.691
11008,3.542,0.000,0.283,2.377,1.190,6.844,0.000,34.674
11021,3.541,0.000,0.283,2.377,1.190,6.844,0.000,34.660
11034,3.542,0.000,0.283,2.377,1.190,6.844,0.000,34.651
11047,3.542,0.000,0.283,2.377,1.190,6.844,0.000,34.655
11060,3.541,0.000,0.283,2.377,1.190,6.844,0.000,34.676
11073,3.541,0.000,0.283,2.377,1.190,6.844,0.000,34.655
11086,3.542,0.000,0.283,2.377,1.190,6.844,0.000,34.657
11099,3.542,0.000,0.283,2.377,1.190,6.844,0.000,34.622
11112,3.541,0.000,0.283,2.377,1.190,6.844,0.000,34.657
11125,3.542,0.000,0.283,2.377,1.190,6.844,0.000,34.652
11138,3.542,0.000,0.283,2.377,1.190,6.844,0.000,34.672
11149,3.542,0.000,0.283,2.377,1.190,6.844,0.000,34.682