File: data/T35/3C/5.csv
time_s,voltage_v,current_a,chargecapacity_ah,dischargecapacity_ah,charge_energy_wh,discharge_energy_wh,voltagedot_v_per_s,temp_degc
1,3.207,0.000,0.000,0.000,0.000,0.000,0.000,33.648
21,3.207,0.000,0.000,0.000,0.000,0.000,0.000,33.695
41,3.207,0.000,0.000,0.000,0.000,0.000,0.000,33.704
60,3.207,0.000,0.000,0.000,0.000,0.000,0.000,33.644
80,3.422,1.625,0.009,0.000,0.031,0.000,0.002,33.633
100,3.448,1.625,0.018,0.000,0.062,0.000,0.001,33.646
120,3.468,1.625,0.027,0.000,0.093,0.000,0.001,33.614
140,3.485,1.625,0.036,0.000,0.124,0.000,0.001,33.585
160,3.499,1.625,0.045,0.000,0.156,0.000,0.001,33.654
180,3.509,1.625,0.054,0.000,0.188,0.000,0.000,33.695
200,3.515,1.625,0.063,0.000,0.219,0.000,0.000,33.750
220,3.518,1.625,0.072,0.000,0.251,0.000,0.000,33.897
240,3.519,1.625,0.081,0.000,0.283,0.000,0.000,33.987
260,3.520,1.625,0.090,0.000,0.315,0.000,0.000,34.140
280,3.522,1.625,0.099,0.000,0.346,0.000,0.000,34.264
300,3.523,1.625,0.108,0.000,0.378,0.000,0.000,34.370
320,3.524,1.625,0.117,0.000,0.410,0.000,0.000,34.506
340,3.525,1.625,0.126,0.000,0.442,0.000,0.000,34.580
360,3.527,1.625,0.135,0.000,0.474,0.000,0.000,34.647
380,3.528,1.625,0.144,0.000,0.505,0.000,0.000,34.693
400,3.530,1.625,0.153,0.000,0.537,0.000,0.000,34.798
420,3.532,1.625,0.163,0.000,0.569,0.000,0.000,34.839
440,3.534,1.625,0.172,0.000,0.601,0.000,0.000,34.897
460,3.536,1.625,0.181,0.000,0.633,0.000,0.000,34.962
480,3.537,1.625,0.190,0.000,0.665,0.000,0.000,35.007
500,3.539,1.625,0.199,0.000,0.697,0.000,0.000,35.060
520,3.541,1.625,0.208,0.000,0.729,0.000,0.000,35.172
540,3.543,1.625,0.217,0.000,0.761,0.000,0.000,35.149
560,3.545,1.625,0.226,0.000,0.793,0.000,0.000,35.194
580,3.547,1.625,0.235,0.000,0.825,0.000,0.000,35.186
600,3.549,1.625,0.244,0.000,0.857,0.000,0.000,35.215
620,3.551,1.625,0.253,0.000,0.889,0.000,0.000,35.255
640,3.553,1.625,0.262,0.000,0.921,0.000,0.000,35.303
660,3.555,1.625,0.271,0.000,0.953,0.000,0.000,35.325
680,3.557,1.625,0.280,0.000,0.985,0.000,0.000,35.369
700,3.559,1.625,0.289,0.000,1.017,0.000,0.000,35.412
720,3.561,1.625,0.298,0.000,1.049,0.000,0.000,35.400
740,3.563,1.625,0.307,0.000,1.082,0.000,0.000,35.446
760,3.566,1.625,0.316,0.000,1.114,0.000,0.000,35.463
780,3.567,1.625,0.325,0.000,1.146,0.000,0.000,35.447
800,3.570,1.625,0.334,0.000,1.178,0.000,0.000,35.478
820,3.572,1.625,0.343,0.000,1.210,0.000,0.000,35.506
840,3.574,1.625,0.352,0.000,1.243,0.000,0.000,35.545
860,3.576,1.625,0.361,0.000,1.275,0.000,0.000,35.570
880,3.578,1.625,0.370,0.000,1.307,0.000,0.000,35.517
900,3.581,1.625,0.379,0.000,1.340,0.000,0.000,35.506
920,3.583,1.625,0.388,0.000,1.372,0.000,0.000,35.530
940,3.585,1.625,0.397,0.000,1.404,0.000,0.000,35.543
960,3.588,1.625,0.406,0.000,1.437,0.000,0.000,35.547
980,3.590,1.625,0.415,0.000,1.469,0.000,0.000,35.554
1000,3.592,1.625,0.424,0.000,1.501,0.000,0.000,35.546
1020,3.595,1.625,0.433,0.000,1.534,0.000,0.000,35.545
1040,3.598,1.625,0.442,0.000,1.566,0.000,0.000,35.565
1060,3.600,1.625,0.451,0.000,1.599,0.000,0.000,35.568
1080,3.603,1.625,0.460,0.000,1.631,0.000,0.000,35.535
1100,3.605,1.625,0.469,0.000,1.664,0.000,0.000,35.562
1120,3.608,1.625,0.479,0.000,1.697,0.000,0.000,35.500
1140,3.610,1.625,0.488,0.000,1.729,0.000,0.000,35.520
1160,3.612,1.625,0.497,0.000,1.762,0.000,0.000,35.565
1180,3.615,1.625,0.506,0.000,1.794,0.000,0.000,35.516
1200,3.617,1.625,0.515,0.000,1.827,0.000,0.000,35.507
1220,3.619,1.625,0.524,0.000,1.860,0.000,0.000,35.525
1240,3.621,1.625,0.533,0.000,1.892,0.000,0.000,35.524
1260,3.624,1.625,0.542,0.000,1.925,0.000,0.000,35.574
1280,3.626,1.625,0.551,0.000,1.958,0.000,0.000,35.548
1300,3.628,1.625,0.560,0.000,1.991,0.000,0.000,35.519
1320,3.630,1.625,0.569,0.000,2.023,0.000,0.000,35.521
1340,3.632,1.625,0.578,0.000,2.056,0.000,0.000,35.508
1360,3.633,1.625,0.587,0.000,2.089,0.000,0.000,35.525
1380,3.635,1.625,0.596,0.000,2.122,0.000,0.000,35.477
1400,3.637,1.625,0.605,0.000,2.154,0.000,0.000,35.486
1420,3.639,1.625,0.614,0.000,2.187,0.000,0.000,35.507
1440,3.641,1.625,0.623,0.000,2.220,0.000,0.000,35.519
1460,3.642,1.625,0.632,0.000,2.253,0.000,0.000,35.539
1480,3.644,1.625,0.641,0.000,2.286,0.000,0.000,35.542
1500,3.646,1.625,0.650,0.000,2.319,0.000,0.000,35.496
1520,3.647,1.625,0.659,0.000,2.352,0.000,0.000,35.507
1540,3.649,1.625,0.668,0.000,2.385,0.000,0.000,35.526
1560,3.650,1.625,0.677,0.000,2.418,0.000,0.000,35.493
1580,3.652,1.625,0.686,0.000,2.451,0.000,0.000,35.509
1600,3.654,1.625,0.695,0.000,2.484,0.000,0.000,35.506
1620,3.655,1.625,0.704,0.000,2.517,0.000,0.000,35.455
1640,3.657,1.625,0.713,0.000,2.550,0.000,0.000,35.513
1660,3.658,1.625,0.722,0.000,2.583,0.000,0.000,35.535
1680,3.660,1.625,0.731,0.000,2.616,0.000,0.000,35.512
1700,3.662,1.625,0.740,0.000,2.649,0.000,0.000,35.576
1720,3.663,1.625,0.749,0.000,2.682,0.000,0.000,35.573
1740,3.665,1.625,0.758,0.000,2.715,0.000,0.000,35.496
1760,3.667,1.625,0.767,0.000,2.748,0.000,0.000,35.556
1780,3.668,1.625,0.776,0.000,2.781,0.000,0.000,35.543
1800,3.670,1.625,0.785,0.000,2.814,0.000,0.000,35.540
1820,3.672,1.625,0.795,0.000,2.847,0.000,0.000,35.559
1840,3.673,1.625,0.804,0.000,2.881,0.000,0.000,35.577
1860,3.675,1.625,0.813,0.000,2.914,0.000,0.000,35.545
1880,3.677,1.625,0.822,0.000,2.947,0.000,0.000,35.575
1900,3.679,1.625,0.831,0.000,2.980,0.000,0.000,35.581
1920,3.680,1.625,0.840,0.000,3.013,0.000,0.000,35.578
1940,3.682,1.625,0.849,0.000,3.047,0.000,0.000,35.541
1960,3.684,1.625,0.858,0.000,3.080,0.000,0.000,35.565
1980,3.685,1.625,0.867,0.000,3.113,0.000,0.000,35.602
2000,3.687,1.625,0.876,0.000,3.146,0.000,0.000,35.633
2020,3.689,1.625,0.885,0.000,3.180,0.000,0.000,35.585
2040,3.691,1.625,0.894,0.000,3.213,0.000,0.000,35.598
2060,3.692,1.625,0.903,0.000,3.246,0.000,0.000,35.612
2080,3.694,1.625,0.912,0.000,3.280,0.000,0.000,35.627
2100,3.696,1.625,0.921,0.000,3.313,0.000,0.000,35.618
2120,3.698,1.625,0.930,0.000,3.346,0.000,0.000,35.652
2140,3.700,1.625,0.939,0.000,3.380,0.000,0.000,35.634
2160,3.701,1.625,0.948,0.000,3.413,0.000,0.000,35.633
2180,3.703,1.625,0.957,0.000,3.447,0.000,0.000,35.679
2200,3.705,1.625,0.966,0.000,3.480,0.000,0.000,35.615
2220,3.707,1.625,0.975,0.000,3.514,0.000,0.000,35.645
2240,3.709,1.625,0.984,0.000,3.547,0.000,0.000,35.633
2260,3.710,1.625,0.993,0.000,3.580,0.000,0.000,35.659
2280,3.712,1.625,1.002,0.000,3.614,0.000,0.000,35.663
2300,3.714,1.625,1.011,0.000,3.648,0.000,0.000,35.647
2320,3.716,1.625,1.020,0.000,3.681,0.000,0.000,35.663
2340,3.718,1.625,1.029,0.000,3.715,0.000,0.000,35.669
2360,3.719,1.625,1.038,0.000,3.748,0.000,0.000,35.701
2380,3.721,1.625,1.047,0.000,3.782,0.000,0.000,35.647
2400,3.723,1.625,1.056,0.000,3.815,0.000,0.000,35.721
2420,3.725,1.625,1.065,0.000,3.849,0.000,0.000,35.751
2440,3.726,1.625,1.074,0.000,3.883,0.000,0.000,35.724
2460,3.728,1.625,1.083,0.000,3.916,0.000,0.000,35.786
2480,3.730,1.625,1.092,0.000,3.950,0.000,0.000,35.793
2500,3.732,1.625,1.101,0.000,3.984,0.000,0.000,35.754
2520,3.734,1.625,1.111,0.000,4.017,0.000,0.000,35.739
2540,3.735,1.625,1.120,0.000,4.051,0.000,0.000,35.760
2560,3.737,1.625,1.129,0.000,4.085,0.000,0.000,35.771
2580,3.739,1.625,1.138,0.000,4.119,0.000,0.000,35.784
2600,3.741,1.625,1.147,0.000,4.152,0.000,0.000,35.806
2620,3.742,1.625,1.156,0.000,4.186,0.000,0.000,35.811
2640,3.744,1.625,1.165,0.000,4.220,0.000,0.000,35.790
2660,3.745,1.625,1.174,0.000,4.254,0.000,0.000,35.803
2680,3.747,1.625,1.183,0.000,4.288,0.000,0.000,35.830
2700,3.749,1.625,1.192,0.000,4.321,0.000,0.000,35.773
2720,3.750,1.625,1.201,0.000,4.355,0.000,0.000,35.800
2740,3.752,1.625,1.210,0.000,4.389,0.000,0.000,35.836
2760,3.754,1.625,1.219,0.000,4.423,0.000,0.000,35.832
2780,3.755,1.625,1.228,0.000,4.457,0.000,0.000,35.817
2800,3.757,1.625,1.237,0.000,4.491,0.000,0.000,35.829
2820,3.758,1.625,1.246,0.000,4.525,0.000,0.000,35.833
2840,3.760,1.625,1.255,0.000,4.559,0.000,0.000,35.832
2860,3.762,1.625,1.264,0.000,4.593,0.000,0.000,35.879
2880,3.763,1.625,1.273,0.000,4.627,0.000,0.000,35.875
2900,3.765,1.625,1.282,0.000,4.661,0.000,0.000,35.875
2920,3.767,1.625,1.291,0.000,4.695,0.000,0.000,35.831
2940,3.768,1.625,1.300,0.000,4.729,0.000,0.000,35.841
2960,3.770,1.625,1.309,0.000,4.763,0.000,0.000,35.872
2980,3.772,1.625,1.318,0.000,4.797,0.000,0.000,35.888
3000,3.773,1.625,1.327,0.000,4.831,0.000,0.000,35.844
3020,3.775,1.625,1.336,0.000,4.865,0.000,0.000,35.889
3040,3.777,1.625,1.345,0.000,4.899,0.000,0.000,35.866
3060,3.778,1.625,1.354,0.000,4.933,0.000,0.000,35.863
3080,3.780,1.625,1.363,0.000,4.967,0.000,0.000,35.866
3100,3.782,1.625,1.372,0.000,5.001,0.000,0.000,35.865
3120,3.784,1.625,1.381,0.000,5.035,0.000,0.000,35.845
3140,3.786,1.625,1.390,0.000,5.070,0.000,0.000,35.854
3160,3.787,1.625,1.399,0.000,5.104,0.000,0.000,35.890
3180,3.789,1.625,1.408,0.000,5.138,0.000,0.000,35.879
3200,3.791,1.625,1.417,0.000,5.172,0.000,0.000,35.873
3220,3.793,1.625,1.427,0.000,5.206,0.000,0.000,35.857
3240,3.795,1.625,1.436,0.000,5.241,0.000,0.000,35.899
3260,3.797,1.625,1.445,0.000,5.275,0.000,0.000,35.873
3280,3.799,1.625,1.454,0.000,5.309,0.000,0.000,35.888
3300,3.801,1.625,1.463,0.000,5.343,0.000,0.000,35.877
3320,3.802,1.625,1.472,0.000,5.378,0.000,0.000,35.863
3340,3.804,1.625,1.481,0.000,5.412,0.000,0.000,35.889
3360,3.806,1.625,1.490,0.000,5.447,0.000,0.000,35.892
3380,3.808,1.625,1.499,0.000,5.481,0.000,0.000,35.878
3400,3.810,1.625,1.508,0.000,5.515,0.000,0.000,35.889
3420,3.812,1.625,1.517,0.000,5.550,0.000,0.000,35.864
3440,3.814,1.625,1.526,0.000,5.584,0.000,0.000,35.880
3460,3.816,1.625,1.535,0.000,5.619,0.000,0.000,35.931
3480,3.819,1.625,1.544,0.000,5.653,0.000,0.000,35.878
3500,3.821,1.625,1.553,0.000,5.688,0.000,0.000,35.888
3520,3.823,1.625,1.562,0.000,5.722,0.000,0.000,35.924
3540,3.825,1.625,1.571,0.000,5.757,0.000,0.000,35.870
3560,3.827,1.625,1.580,0.000,5.791,0.000,0.000,35.872
3580,3.829,1.625,1.589,0.000,5.826,0.000,0.000,35.835
3600,3.831,1.625,1.598,0.000,5.860,0.000,0.000,35.829
3620,3.834,1.625,1.607,0.000,5.895,0.000,0.000,35.865
3640,3.836,1.625,1.616,0.000,5.929,0.000,0.000,35.896
3660,3.838,1.625,1.625,0.000,5.964,0.000,0.000,35.849
3680,3.840,1.625,1.634,0.000,5.999,0.000,0.000,35.883
3700,3.842,1.625,1.643,0.000,6.033,0.000,0.000,35.850
3720,3.845,1.625,1.652,0.000,6.068,0.000,0.000,35.870
3740,3.847,1.625,1.661,0.000,6.103,0.000,0.000,35.844
3760,3.849,1.625,1.670,0.000,6.138,0.000,0.000,35.892
3780,3.852,1.625,1.679,0.000,6.172,0.000,0.000,35.884
3800,3.854,1.625,1.688,0.000,6.207,0.000,0.000,35.876
3820,3.856,1.625,1.697,0.000,6.242,0.000,0.000,35.889
3840,3.859,1.625,1.706,0.000,6.277,0.000,0.000,35.875
3860,3.861,1.625,1.715,0.000,6.312,0.000,0.000,35.879
3880,3.864,1.625,1.724,0.000,6.347,0.000,0.000,35.865
3900,3.866,1.625,1.733,0.000,6.381,0.000,0.000,35.880
3920,3.869,1.625,1.743,0.000,6.416,0.000,0.000,35.876
3940,3.871,1.625,1.752,0.000,6.451,0.000,0.000,35.866
3960,3.874,1.625,1.761,0.000,6.486,0.000,0.000,35.935
3980,3.876,1.625,1.770,0.000,6.521,0.000,0.000,35.901
4000,3.878,1.625,1.779,0.000,6.556,0.000,0.000,35.889
4020,3.881,1.625,1.788,0.000,6.591,0.000,0.000,35.880
4040,3.883,1.625,1.797,0.000,6.626,0.000,0.000,35.884
4060,3.886,1.625,1.806,0.000,6.661,0.000,0.000,35.903
4080,3.889,1.625,1.815,0.000,6.696,0.000,0.000,35.907
4100,3.891,1.625,1.824,0.000,6.732,0.000,0.000,35.886
4120,3.893,1.625,1.833,0.000,6.767,0.000,0.000,35.887
4140,3.896,1.625,1.842,0.000,6.802,0.000,0.000,35.897
4160,3.899,1.625,1.851,0.000,6.837,0.000,0.000,35.884
4180,3.901,1.625,1.860,0.000,6.872,0.000,0.000,35.920
4200,3.904,1.625,1.869,0.000,6.908,0.000,0.000,35.914
4220,3.906,1.625,1.878,0.000,6.943,0.000,0.000,35.918
4240,3.909,1.625,1.887,0.000,6.978,0.000,0.000,35.880
4260,3.911,1.625,1.896,0.000,7.013,0.000,0.000,35.895
4280,3.914,1.625,1.905,0.000,7.049,0.000,0.000,35.845
4300,3.917,1.625,1.914,0.000,7.084,0.000,0.000,35.930
4320,3.919,1.625,1.923,0.000,7.119,0.000,0.000,35.927
4340,3.922,1.625,1.932,0.000,7.155,0.000,0.000,35.865
4360,3.924,1.625,1.941,0.000,7.190,0.000,0.000,35.900
4380,3.927,1.625,1.950,0.000,7.226,0.000,0.000,35.865
4400,3.929,1.625,1.959,0.000,7.261,0.000,0.000,35.887
4420,3.932,1.625,1.968,0.000,7.297,0.000,0.000,35.908
4440,3.935,1.625,1.977,0.000,7.332,0.000,0.000,35.915
4460,3.937,1.625,1.986,0.000,7.368,0.000,0.000,35.884
4480,3.940,1.625,1.995,0.000,7.403,0.000,0.000,35.888
4500,3.942,1.625,2.004,0.000,7.439,0.000,0.000,35.891
4520,3.945,1.625,2.013,0.000,7.474,0.000,0.000,35.913
4540,3.947,1.625,2.022,0.000,7.510,0.000,0.000,35.871
4560,3.950,1.625,2.031,0.000,7.546,0.000,0.000,35.905
4580,3.953,1.625,2.040,0.000,7.581,0.000,0.000,35.890
4600,3.955,1.625,2.049,0.000,7.617,0.000,0.000,35.878
4620,3.958,1.625,2.059,0.000,7.653,0.000,0.000,35.858
4640,3.960,1.625,2.068,0.000,7.689,0.000,0.000,35.839
4660,3.963,1.625,2.077,0.000,7.724,0.000,0.000,35.871
4680,3.965,1.625,2.086,0.000,7.760,0.000,0.000,35.876
4700,3.968,1.625,2.095,0.000,7.796,0.000,0.000,35.848
4720,3.970,1.625,2.104,0.000,7.832,0.000,0.000,35.885
4740,3.973,1.625,2.113,0.000,7.868,0.000,0.000,35.843
4760,3.976,1.625,2.122,0.000,7.903,0.000,0.000,35.822
4780,3.978,1.625,2.131,0.000,7.939,0.000,0.000,35.872
4800,3.981,1.625,2.140,0.000,7.975,0.000,0.000,35.878
4820,3.983,1.625,2.149,0.000,8.011,0.000,0.000,35.819
4840,3.986,1.625,2.158,0.000,8.047,0.000,0.000,35.889
4860,3.988,1.625,2.167,0.000,8.083,0.000,0.000,35.875
4880,3.991,1.625,2.176,0.000,8.119,0.000,0.000,35.870
4900,3.993,1.625,2.185,0.000,8.155,0.000,0.000,35.817
4920,3.996,1.625,2.194,0.000,8.191,0.000,0.000,35.824
4940,3.998,1.625,2.203,0.000,8.227,0.000,0.000,35.807
4960,4.001,1.625,2.212,0.000,8.264,0.000,0.000,35.822
4980,4.003,1.625,2.221,0.000,8.300,0.000,0.000,35.837
5000,4.006,1.625,2.230,0.000,8.336,0.000,0.000,35.822
5020,4.008,1.625,2.239,0.000,8.372,0.000,0.000,35.797
5040,4.011,1.625,2.248,0.000,8.408,0.000,0.000,35.820
5060,4.013,1.625,2.257,0.000,8.444,0.000,0.000,35.848
5080,4.016,1.625,2.266,0.000,8.481,0.000,0.000,35.799
5100,4.018,1.625,2.275,0.000,8.517,0.000,0.000,35.786
5120,4.021,1.625,2.284,0.000,8.553,0.000,0.000,35.794
5140,4.023,1.625,2.293,0.000,8.590,0.000,0.000,35.772
5160,4.026,1.625,2.302,0.000,8.626,0.000,0.000,35.779
5180,4.028,1.625,2.311,0.000,8.662,0.000,0.000,35.762
5200,4.031,1.625,2.320,0.000,8.699,0.000,0.000,35.781
5220,4.033,1.625,2.329,0.000,8.735,0.000,0.000,35.788
5240,4.036,1.625,2.338,0.000,8.771,0.000,0.000,35.774
5260,4.038,1.625,2.347,0.000,8.808,0.000,0.000,35.808
5280,4.041,1.625,2.356,0.000,8.844,0.000,0.000,35.824
5300,4.044,1.625,2.365,0.000,8.881,0.000,0.000,35.774
5320,4.046,1.625,2.375,0.000,8.917,0.000,0.000,35.805
5340,4.049,1.625,2.384,0.000,8.954,0.000,0.000,35.814
5360,4.051,1.625,2.393,0.000,8.991,0.000,0.000,35.775
5380,4.054,1.625,2.402,0.000,9.027,0.000,0.000,35.811
5400,4.057,1.625,2.411,0.000,9.064,0.000,0.000,35.798
5420,4.059,1.625,2.420,0.000,9.100,0.000,0.000,35.804
5440,4.062,1.625,2.429,0.000,9.137,0.000,0.000,35.792
5460,4.065,1.625,2.438,0.000,9.174,0.000,0.000,35.780
5480,4.068,1.625,2.447,0.000,9.210,0.000,0.000,35.824
5500,4.070,1.625,2.456,0.000,9.247,0.000,0.000,35.806
5520,4.073,1.625,2.465,0.000,9.284,0.000,0.000,35.854
5540,4.076,1.625,2.474,0.000,9.321,0.000,0.000,35.802
5560,4.079,1.625,2.483,0.000,9.358,0.000,0.000,35.834
5580,4.082,1.625,2.492,0.000,9.394,0.000,0.000,35.840
5600,4.085,1.625,2.501,0.000,9.431,0.000,0.000,35.811
5620,4.088,1.625,2.510,0.000,9.468,0.000,0.000,35.810
5640,4.091,1.625,2.519,0.000,9.505,0.000,0.000,35.852
5660,4.094,1.625,2.528,0.000,9.542,0.000,0.000,35.859
5680,4.097,1.625,2.537,0.000,9.579,0.000,0.000,35.855
5700,4.100,1.625,2.546,0.000,9.616,0.000,0.000,35.905
5720,4.103,1.625,2.555,0.000,9.653,0.000,0.000,35.910
5740,4.106,1.625,2.564,0.000,9.690,0.000,0.000,35.854
5760,4.109,1.625,2.573,0.000,9.727,0.000,0.000,35.851
5780,4.113,1.625,2.582,0.000,9.764,0.000,0.000,35.907
5800,4.116,1.625,2.591,0.000,9.801,0.000,0.000,35.857
5820,4.119,1.625,2.600,0.000,9.839,0.000,0.000,35.814
5840,4.123,1.625,2.609,0.000,9.876,0.000,0.000,35.885
5860,4.126,1.625,2.618,0.000,9.913,0.000,0.000,35.897
5880,4.129,1.625,2.627,0.000,9.950,0.000,0.000,35.924
5900,4.133,1.625,2.636,0.000,9.988,0.000,0.000,35.912
5920,4.136,1.625,2.645,0.000,10.025,0.000,0.000,35.942
5940,4.140,1.625,2.654,0.000,10.062,0.000,0.000,35.908
5960,4.143,1.625,2.663,0.000,10.100,0.000,0.000,35.922
5980,4.147,1.625,2.672,0.000,10.137,0.000,0.000,35.906
6000,4.150,1.625,2.681,0.000,10.175,0.000,0.000,35.869
6020,4.154,1.625,2.691,0.000,10.212,0.000,0.000,35.839
6040,4.157,1.625,2.700,0.000,10.250,0.000,0.000,35.914
6060,4.161,1.625,2.709,0.000,10.287,0.000,0.000,35.951
6080,4.164,1.625,2.718,0.000,10.325,0.000,0.000,35.943
6100,4.168,1.625,2.727,0.000,10.362,0.000,0.000,35.942
6120,4.172,1.625,2.736,0.000,10.400,0.000,0.000,35.980
6140,4.175,1.625,2.745,0.000,10.438,0.000,0.000,35.943
6160,4.179,1.625,2.754,0.000,10.475,0.000,0.000,35.978
6180,4.182,1.625,2.763,0.000,10.513,0.000,0.000,35.967
6200,4.186,1.625,2.772,0.000,10.551,0.000,0.000,35.990
6220,4.190,1.625,2.781,0.000,10.589,0.000,0.000,36.022
6240,4.193,1.625,2.790,0.000,10.627,0.000,0.000,35.956
6260,4.197,1.625,2.799,0.000,10.664,0.000,0.000,35.973
6279,4.200,1.619,2.808,0.000,10.701,0.000,0.000,36.004
6299,4.200,1.563,2.816,0.000,10.738,0.000,0.000,35.956
6319,4.200,1.518,2.825,0.000,10.774,0.000,0.000,36.003
6339,4.200,1.479,2.833,0.000,10.809,0.000,0.000,35.978
6359,4.200,1.445,2.841,0.000,10.843,0.000,0.000,35.971
6379,4.200,1.412,2.849,0.000,10.876,0.000,0.000,35.953
6399,4.200,1.383,2.857,0.000,10.909,0.000,0.000,35.949
6419,4.200,1.354,2.865,0.000,10.941,0.000,0.000,35.991
6439,4.200,1.326,2.872,0.000,10.972,0.000,0.000,35.938
6459,4.200,1.300,2.879,0.000,11.003,0.000,0.000,35.900
6479,4.200,1.274,2.887,0.000,11.033,0.000,0.000,35.895
6499,4.200,1.249,2.894,0.000,11.062,0.000,0.000,35.865
6519,4.200,1.226,2.900,0.000,11.091,0.000,0.000,35.868
6539,4.200,1.203,2.907,0.000,11.119,0.000,0.000,35.818
6559,4.200,1.181,2.914,0.000,11.147,0.000,0.000,35.843
6579,4.200,1.159,2.920,0.000,11.174,0.000,0.000,35.818
6599,4.200,1.139,2.927,0.000,11.201,0.000,0.000,35.841
6619,4.200,1.119,2.933,0.000,11.228,0.000,0.000,35.820
6639,4.200,1.099,2.939,0.000,11.253,0.000,0.000,35.774
6659,4.200,1.081,2.945,0.000,11.279,0.000,0.000,35.779
6679,4.200,1.062,2.951,0.000,11.304,0.000,0.000,35.746
6699,4.200,1.044,2.957,0.000,11.329,0.000,0.000,35.741
6719,4.200,1.028,2.963,0.000,11.353,0.000,0.000,35.669
6739,4.200,1.011,2.968,0.000,11.376,0.000,0.000,35.702
6759,4.200,0.995,2.974,0.000,11.400,0.000,0.000,35.644
6779,4.200,0.978,2.979,0.000,11.423,0.000,0.000,35.666
6799,4.200,0.963,2.985,0.000,11.446,0.000,0.000,35.639
6819,4.200,0.949,2.990,0.000,11.468,0.000,0.000,35.589
6839,4.200,0.934,2.995,0.000,11.490,0.000,0.000,35.569
6859,4.200,0.919,3.001,0.000,11.511,0.000,0.000,35.552
6879,4.200,0.904,3.006,0.000,11.533,0.000,0.000,35.560
6899,4.200,0.891,3.011,0.000,11.554,0.000,0.000,35.525
6919,4.200,0.877,3.015,0.000,11.574,0.000,0.000,35.517
6939,4.200,0.863,3.020,0.000,11.595,0.000,0.000,35.504
6959,4.200,0.850,3.025,0.000,11.615,0.000,0.000,35.465
6979,4.200,0.837,3.030,0.000,11.634,0.000,0.000,35.473
6999,4.200,0.825,3.034,0.000,11.654,0.000,0.000,35.424
7019,4.200,0.813,3.039,0.000,11.673,0.000,0.000,35.454
7039,4.200,0.800,3.043,0.000,11.691,0.000,0.000,35.337
7059,4.200,0.787,3.048,0.000,11.710,0.000,0.000,35.347
7079,4.200,0.775,3.052,0.000,11.728,0.000,0.000,35.374
7099,4.200,0.763,3.056,0.000,11.746,0.000,0.000,35.372
7119,4.200,0.751,3.061,0.000,11.764,0.000,0.000,35.312
7139,4.200,0.740,3.065,0.000,11.781,0.000,0.000,35.341
7159,4.200,0.729,3.069,0.000,11.798,0.000,0.000,35.311
7179,4.200,0.717,3.073,0.000,11.815,0.000,0.000,35.277
7199,4.200,0.707,3.077,0.000,11.832,0.000,0.000,35.271
7219,4.200,0.695,3.081,0.000,11.848,0.000,0.000,35.268
7239,4.200,0.685,3.085,0.000,11.864,0.000,0.000,35.297
7259,4.200,0.673,3.088,0.000,11.880,0.000,0.000,35.257
7279,4.200,0.663,3.092,0.000,11.896,0.000,0.000,35.234
7299,4.200,0.652,3.096,0.000,11.911,0.000,0.000,35.206
7319,4.200,0.642,3.099,0.000,11.926,0.000,0.000,35.198
7339,4.200,0.631,3.103,0.000,11.941,0.000,0.000,35.230
7359,4.200,0.620,3.106,0.000,11.956,0.000,0.000,35.192
7379,4.200,0.611,3.110,0.000,11.970,0.000,0.000,35.154
7399,4.200,0.600,3.113,0.000,11.984,0.000,0.000,35.187
7419,4.200,0.590,3.116,0.000,11.998,0.000,0.000,35.161
7439,4.200,0.580,3.120,0.000,12.012,0.000,0.000,35.141
7459,4.200,0.571,3.123,0.000,12.025,0.000,0.000,35.130
7479,4.200,0.561,3.126,0.000,12.038,0.000,0.000,35.141
7499,4.200,0.551,3.129,0.000,12.051,0.000,0.000,35.135
7519,4.200,0.542,3.132,0.000,12.064,0.000,0.000,35.096
7539,4.200,0.533,3.135,0.000,12.076,0.000,0.000,35.142
7559,4.200,0.523,3.138,0.000,12.089,0.000,0.000,35.093
7579,4.200,0.514,3.141,0.000,12.101,0.000,0.000,35.058
7599,4.200,0.504,3.144,0.000,12.113,0.000,0.000,35.051
7619,4.200,0.496,3.146,0.000,12.124,0.000,0.000,35.066
7639,4.200,0.487,3.149,0.000,12.136,0.000,0.000,35.027
7659,4.200,0.478,3.152,0.000,12.147,0.000,0.000,35.020
7679,4.200,0.470,3.155,0.000,12.158,0.000,0.000,35.060
7699,4.200,0.462,3.157,0.000,12.169,0.000,0.000,35.005
7719,4.200,0.452,3.160,0.000,12.180,0.000,0.000,35.039
7739,4.200,0.444,3.162,0.000,12.190,0.000,0.000,34.997
7759,4.200,0.436,3.165,0.000,12.200,0.000,0.000,35.025
7779,4.200,0.427,3.167,0.000,12.210,0.000,0.000,35.019
7799,4.200,0.420,3.169,0.000,12.220,0.000,0.000,34.986
7819,4.200,0.412,3.172,0.000,12.230,0.000,0.000,34.987
7839,4.200,0.405,3.174,0.000,12.240,0.000,0.000,34.961
7859,4.200,0.397,3.176,0.000,12.249,0.000,0.000,34.969
7879,4.200,0.389,3.178,0.000,12.258,0.000,0.000,34.917
7899,4.200,0.381,3.180,0.000,12.267,0.000,0.000,34.930
7919,4.200,0.375,3.183,0.000,12.276,0.000,0.000,34.931
7939,4.200,0.367,3.185,0.000,12.285,0.000,0.000,34.908
7959,4.200,0.360,3.187,0.000,12.293,0.000,0.000,34.942
7979,4.200,0.353,3.189,0.000,12.301,0.000,0.000,34.899
7999,4.200,0.346,3.191,0.000,12.309,0.000,0.000,34.882
8019,4.200,0.340,3.192,0.000,12.317,0.000,0.000,34.906
8039,4.200,0.332,3.194,0.000,12.325,0.000,0.000,34.871
8059,4.200,0.326,3.196,0.000,12.333,0.000,0.000,34.912
8079,4.200,0.319,3.198,0.000,12.340,0.000,0.000,34.890
8099,4.200,0.313,3.200,0.000,12.348,0.000,0.000,34.866
8119,4.200,0.307,3.201,0.000,12.355,0.000,0.000,34.862
8139,4.200,0.301,3.203,0.000,12.362,0.000,0.000,34.858
8159,4.200,0.294,3.205,0.000,12.369,0.000,0.000,34.864
8179,4.200,0.288,3.206,0.000,12.376,0.000,0.000,34.842
8199,4.200,0.284,3.208,0.000,12.383,0.000,0.000,34.836
8219,4.200,0.278,3.209,0.000,12.389,0.000,0.000,34.878
8239,4.200,0.271,3.211,0.000,12.396,0.000,0.000,34.808
8259,4.200,0.266,3.213,0.000,12.402,0.000,0.000,34.830
8279,4.200,0.260,3.214,0.000,12.408,0.000,0.000,34.839
8299,4.200,0.255,3.215,0.000,12.414,0.000,0.000,34.855
8319,4.200,0.250,3.217,0.000,12.420,0.000,0.000,34.838
8339,4.200,0.244,3.218,0.000,12.426,0.000,0.000,34.832
8359,4.200,0.239,3.220,0.000,12.431,0.000,0.000,34.773
8379,4.200,0.236,3.221,0.000,12.437,0.000,0.000,34.811
8399,4.200,0.230,3.222,0.000,12.442,0.000,0.000,34.791
8419,4.200,0.227,3.223,0.000,12.448,0.000,0.000,34.807
8439,4.200,0.221,3.225,0.000,12.453,0.000,0.000,34.770
8459,4.200,0.216,3.226,0.000,12.458,0.000,0.000,34.828
8479,4.200,0.212,3.227,0.000,12.463,0.000,0.000,34.800
8499,4.200,0.208,3.228,0.000,12.468,0.000,0.000,34.772
8519,4.200,0.203,3.229,0.000,12.473,0.000,0.000,34.749
8539,4.200,0.199,3.230,0.000,12.477,0.000,0.000,34.756
8559,4.200,0.195,3.232,0.000,12.482,0.000,0.000,34.782
8579,4.200,0.191,3.233,0.000,12.486,0.000,0.000,34.792
8599,4.200,0.188,3.234,0.000,12.491,0.000,0.000,34.802
8619,4.200,0.184,3.235,0.000,12.495,0.000,0.000,34.801
8639,4.200,0.180,3.236,0.000,12.499,0.000,0.000,34.790
8659,4.200,0.176,3.237,0.000,12.503,0.000,0.000,34.789
8679,4.200,0.173,3.238,0.000,12.508,0.000,0.000,34.778
8699,4.200,0.170,3.239,0.000,12.512,0.000,0.000,34.749
8719,4.200,0.165,3.240,0.000,12.515,0.000,0.000,34.758
8739,4.200,0.162,3.240,0.000,12.519,0.000,0.000,34.767
8759,4.200,0.159,3.241,0.000,12.523,0.000,0.000,34.757
8779,4.200,0.156,3.242,0.000,12.527,0.000,0.000,34.740
8799,4.200,0.153,3.243,0.000,12.530,0.000,0.000,34.709
8819,4.200,0.150,3.244,0.000,12.534,0.000,0.000,34.731
8839,4.200,0.147,3.245,0.000,12.537,0.000,0.000,34.773
8859,4.200,0.144,3.246,0.000,12.541,0.000,0.000,34.707
8879,4.200,0.140,3.246,0.000,12.544,0.000,0.000,34.740
8899,4.200,0.138,3.247,0.000,12.547,0.000,0.000,34.733
8919,4.200,0.135,3.248,0.000,12.550,0.000,0.000,34.712
8939,4.200,0.132,3.249,0.000,12.553,0.000,0.000,34.658
8959,4.200,0.129,3.249,0.000,12.557,0.000,0.000,34.751
8979,4.200,0.127,3.250,0.000,12.560,0.000,0.000,34.776
8999,4.200,0.125,3.251,0.000,12.562,0.000,0.000,34.673
9019,4.200,0.123,3.251,0.000,12.565,0.000,0.000,34.703
9039,4.200,0.120,3.252,0.000,12.568,0.000,0.000,34.691
9059,4.200,0.118,3.253,0.000,12.571,0.000,0.000,34.694
9079,4.200,0.116,3.253,0.000,12.574,0.000,0.000,34.709
9099,4.200,0.114,3.254,0.000,12.576,0.000,0.000,34.714
9119,4.200,0.111,3.255,0.000,12.579,0.000,0.000,34.700
9139,4.200,0.109,3.255,0.000,12.581,0.000,0.000,34.680
9159,4.200,0.107,3.256,0.000,12.584,0.000,0.000,34.700
9179,4.200,0.105,3.256,0.000,12.586,0.000,0.000,34.715
9199,4.200,0.103,3.257,0.000,12.589,0.000,0.000,34.694
9219,4.200,0.101,3.258,0.000,12.591,0.000,0.000,34.704
9239,4.200,0.099,3.258,0.000,12.594,0.000,0.000,34.715
9259,4.200,0.096,3.259,0.000,12.596,0.000,0.000,34.668
9279,4.200,0.095,3.259,0.000,12.598,0.000,0.000,34.685
9299,4.200,0.093,3.260,0.000,12.600,0.000,0.000,34.705
9319,4.200,0.091,3.260,0.000,12.602,0.000,0.000,34.698
9339,4.200,0.090,3.261,0.000,12.605,0.000,0.000,34.724
9359,4.200,0.088,3.261,0.000,12.607,0.000,0.000,34.738
9379,4.200,0.087,3.262,0.000,12.609,0.000,0.000,34.697
9399,4.200,0.085,3.262,0.000,12.611,0.000,0.000,34.712
9419,4.200,0.084,3.263,0.000,12.613,0.000,0.000,34.735
9439,4.200,0.081,3.263,0.000,12.615,0.000,0.000,34.694
9459,4.200,0.081,3.264,0.000,12.616,0.000,0.000,34.676
9479,4.200,0.079,3.264,0.000,12.618,0.000,0.000,34.691
9499,4.200,0.078,3.265,0.000,12.620,0.000,0.000,34.686
9519,4.200,0.076,3.265,0.000,12.622,0.000,0.000,34.664
9539,4.200,0.074,3.265,0.000,12.624,0.000,0.000,34.713
9559,4.200,0.073,3.266,0.000,12.625,0.000,0.000,34.707
9579,4.200,0.072,3.266,0.000,12.627,0.000,0.000,34.661
9599,4.200,0.071,3.267,0.000,12.629,0.000,0.000,34.744
9619,4.200,0.069,3.267,0.000,12.630,0.000,0.000,34.665
9639,4.200,0.069,3.267,0.000,12.632,0.000,0.000,34.712
9659,4.200,0.067,3.268,0.000,12.634,0.000,0.000,34.683
9679,4.200,0.066,3.268,0.000,12.635,0.000,0.000,34.697
9699,4.196,0.000,3.268,0.000,12.636,0.000,0.000,34.703
9719,4.195,0.000,3.268,0.000,12.636,0.000,0.000,34.680
9739,4.195,0.000,3.268,0.000,12.636,0.000,0.000,34.698
9759,4.194,0.000,3.268,0.000,12.636,0.000,0.000,34.633
9779,4.194,0.000,3.268,0.000,12.636,0.000,0.000,34.672
9799,4.194,0.000,3.268,0.000,12.636,0.000,0.000,34.658
9819,4.193,0.000,3.268,0.000,12.636,0.000,0.000,34.678
9839,4.193,0.000,3.268,0.000,12.636,0.000,0.000,34.669
9859,4.193,0.000,3.268,0.000,12.636,0.000,0.000,34.664
9879,4.192,0.000,3.268,0.000,12.636,0.000,0.000,34.654
9899,4.192,0.000,3.268,0.000,12.636,0.000,0.000,34.688
9919,4.192,0.000,3.268,0.000,12.636,0.000,0.000,34.650
9939,4.192,0.000,3.268,0.000,12.636,0.000,0.000,34.633
9959,4.192,0.000,3.268,0.000,12.636,0.000,0.000,34.640
9979,4.191,0.000,3.268,0.000,12.636,0.000,0.000,34.632
9999,4.191,0.000,3.268,0.000,12.636,0.000,0.000,34.660
10019,4.191,0.000,3.268,0.000,12.636,0.000,0.000,34.599
10039,4.191,0.000,3.268,0.000,12.636,0.000,0.000,34.666
10059,4.191,0.000,3.268,0.000,12.636,0.000,0.000,34.635
10079,4.191,0.000,3.268,0.000,12.636,0.000,0.000,34.644
10099,4.190,0.000,3.268,0.000,12.636,0.000,0.000,34.664
10119,4.190,0.000,3.268,0.000,12.636,0.000,0.000,34.655
10139,4.190,0.000,3.268,0.000,12.636,0.000,0.000,34.657
10159,4.190,0.000,3.268,0.000,12.636,0.000,0.000,34.620
10179,4.190,0.000,3.268,0.000,12.636,0.000,0.000,34.680
10199,4.190,0.000,3.268,0.000,12.636,0.000,0.000,34.641
10219,4.190,0.000,3.268,0.000,12.636,0.000,0.000,34.680
10239,4.189,0.000,3.268,0.000,12.636,0.000,0.000,34.582
10259,4.189,0.000,3.268,0.000,12.636,0.000,0.000,34.613
10279,4.189,0.000,3.268,0.000,12.636,0.000,0.000,34.648
10299,4.189,0.000,3.268,0.000,12.636,0.000,0.000,34.616
10319,4.189,0.000,3.268,0.000,12.636,0.000,0.000,34.632
10339,4.189,0.000,3.268,0.000,12.636,0.000,0.000,34.657
10359,4.189,0.000,3.268,0.000,12.636,0.000,0.000,34.629
10379,4.188,0.000,3.268,0.000,12.636,0.000,0.000,34.651
10399,4.188,0.000,3.268,0.000,12.636,0.000,0.000,34.605
10419,4.188,0.000,3.268,0.000,12.636,0.000,0.000,34.713
10439,4.188,0.000,3.268,0.000,12.636,0.000,0.000,34.604
10459,4.188,0.000,3.268,0.000,12.636,0.000,0.000,34.656
10479,4.188,0.000,3.268,0.000,12.636,0.000,0.000,34.654
10499,4.188,0.000,3.268,0.000,12.636,0.000,0.000,34.607
10519,4.188,0.000,3.268,0.000,12.636,0.000,0.000,34.629
10539,4.188,0.000,3.268,0.000,12.636,0.000,0.000,34.631
10559,4.188,0.000,3.268,0.000,12.636,0.000,0.000,34.635
10579,4.188,0.000,3.268,0.000,12.636,0.000,0.000,34.620
10599,4.187,0.000,3.268,0.000,12.636,0.000,0.000,34.629
10619,4.187,0.000,3.268,0.000,12.636,0.000,0.000,34.642
10639,4.187,0.000,3.268,0.000,12.636,0.000,0.000,34.669
10659,4.187,0.000,3.268,0.000,12.636,0.000,0.000,34.656
10679,4.187,0.000,3.268,0.000,12.636,0.000,0.000,34.650
10699,4.187,0.000,3.268,0.000,12.636,0.000,0.000,34.628
10719,4.187,0.000,3.268,0.000,12.636,0.000,0.000,34.634
10739,4.187,0.000,3.268,0.000,12.636,0.000,0.000,34.680
10759,4.187,0.000,3.268,0.000,12.636,0.000,0.000,34.620
10779,4.187,0.000,3.268,0.000,12.636,0.000,0.000,34.673
10799,4.187,0.000,3.268,0.000,12.636,0.000,0.000,34.665
10819,4.187,0.000,3.268,0.000,12.636,0.000,0.000,34.658
10839,4.186,0.000,3.268,0.000,12.636,0.000,0.000,34.626
10859,4.186,0.000,3.268,0.000,12.636,0.000,0.000,34.653
10879,4.186,0.000,3.268,0.000,12.636,0.000,0.000,34.678
10899,4.186,0.000,3.268,0.000,12.636,0.000,0.000,34.618
10919,4.186,0.000,3.268,0.000,12.636,0.000,0.000,34.633
10939,4.186,0.000,3.268,0.000,12.636,0.000,0.000,34.620
10959,4.186,0.000,3.268,0.000,12.636,0.000,0.000,34.639
10979,4.186,0.000,3.268,0.000,12.636,0.000,0.000,34.603
10999,4.186,0.000,3.268,0.000,12.636,0.000,0.000,34.636
11019,4.186,0.000,3.268,0.000,12.636,0.000,0.000,34.646
11039,4.186,0.000,3.268,0.000,12.636,0.000,0.000,34.632
11059,4.186,0.000,3.268,0.000,12.636,0.000,0.000,34.606
11079,4.186,0.000,3.268,0.000,12.636,0.000,0.000,34.593
11099,4.186,0.000,3.268,0.000,12.636,0.000,0.000,34.633
11119,4.185,0.000,3.268,0.000,12.636,0.000,0.000,34.628
11139,4.185,0.000,3.268,0.000,12.636,0.000,0.000,34.626
11159,4.185,0.000,3.268,0.000,12.636,0.000,0.000,34.636
11179,4.185,0.000,3.268,0.000,12.636,0.000,0.000,34.607
11199,4.185,0.000,3.268,0.000,12.636,0.000,0.000,34.638
11219,4.185,0.000,3.268,0.000,12.636,0.000,0.000,34.600
11239,4.185,0.000,3.268,0.000,12.636,0.000,0.000,34.655
11259,4.185,0.000,3.268,0.000,12.636,0.000,0.000,34.623
11279,4.185,0.000,3.268,0.000,12.636,0.000,0.000,34.608
11299,4.185,0.000,3.268,0.000,12.636,0.000,0.000,34.637
11319,4.185,0.000,3.268,0.000,12.636,0.000,0.000,34.619
11339,4.185,0.000,3.268,0.000,12.636,0.000,0.000,34.639
11359,4.185,0.000,3.268,0.000,12.636,0.000,0.000,34.595
11379,4.185,0.000,3.268,0.000,12.636,0.000,0.000,34.644
11399,4.185,0.000,3.268,0.000,12.636,0.000,0.000,34.668
11419,4.185,0.000,3.268,0.000,12.636,0.000,0.000,34.627
11439,4.184,0.000,3.268,0.000,12.636,0.000,0.000,34.626
11459,4.185,0.000,3.268,0.000,12.636,0.000,0.000,34.638
11479,4.184,0.000,3.268,0.000,12.636,0.000,0.000,34.608
11499,4.185,0.000,3.268,0.000,12.636,0.000,0.000,34.614
11519,4.184,0.000,3.268,0.000,12.636,0.000,0.000,34.632
11539,4.184,0.000,3.268,0.000,12.636,0.000,0.000,34.675
11559,4.184,0.000,3.268,0.000,12.636,0.000,0.000,34.608
11579,4.184,0.000,3.268,0.000,12.636,0.000,0.000,34.661
11599,4.184,0.000,3.268,0.000,12.636,0.000,0.000,34.654
11619,4.184,0.000,3.268,0.000,12.636,0.000,0.000,34.627
11639,4.184,0.000,3.268,0.000,12.636,0.000,0.000,34.668
11659,4.184,0.000,3.268,0.000,12.636,0.000,0.000,34.657
11679,4.184,0.000,3.268,0.000,12.636,0.000,0.000,34.651
11699,4.184,0.000,3.268,0.000,12.636,0.000,0.000,34.629
11719,4.184,0.000,3.268,0.000,12.636,0.000,0.000,34.656
11739,4.184,0.000,3.268,0.000,12.636,0.000,0.000,34.684
11759,4.184,0.000,3.268,0.000,12.636,0.000,0.000,34.616
11779,4.184,0.000,3.268,0.000,12.636,0.000,0.000,34.605
11799,4.184,0.000,3.268,0.000,12.636,0.000,0.000,34.628
11819,4.184,0.000,3.268,0.000,12.636,0.000,0.000,34.640
11839,4.184,0.000,3.268,0.000,12.636,0.000,0.000,34.672
11859,4.184,0.000,3.268,0.000,12.636,0.000,0.000,34.647
11879,4.184,0.000,3.268,0.000,12.636,0.000,0.000,34.665
11899,4.183,0.000,3.268,0.000,12.636,0.000,0.000,34.607
11919,4.184,0.000,3.268,0.000,12.636,0.000,0.000,34.626
11939,4.183,0.000,3.268,0.000,12.636,0.000,0.000,34.653
11959,4.183,0.000,3.268,0.000,12.636,0.000,0.000,34.636
11979,4.183,0.000,3.268,0.000,12.636,0.000,0.000,34.588
11999,4.183,0.000,3.268,0.000,12.636,0.000,0.000,34.649
12019,4.183,0.000,3.268,0.000,12.636,0.000,0.000,34.639
12039,4.183,0.000,3.268,0.000,12.636,0.000,0.000,34.650
12059,4.183,0.000,3.268,0.000,12.636,0.000,0.000,34.634
12079,4.183,0.000,3.268,0.000,12.636,0.000,0.000,34.654
12099,4.183,0.000,3.268,0.000,12.636,0.000,0.000,34.663
12119,4.183,0.000,3.268,0.000,12.636,0.000,0.000,34.619
12139,4.183,0.000,3.268,0.000,12.636,0.000,0.000,34.641
12159,4.183,0.000,3.268,0.000,12.636,0.000,0.000,34.648
12179,4.183,0.000,3.268,0.000,12.636,0.000,0.000,34.625
12199,4.183,0.000,3.268,0.000,12.636,0.000,0.000,34.604
12219,4.183,0.000,3.268,0.000,12.636,0.000,0.000,34.657
12239,4.183,0.000,3.268,0.000,12.636,0.000,0.000,34.671
12259,4.183,0.000,3.268,0.000,12.636,0.000,0.000,34.661
12279,4.183,0.000,3.268,0.000,12.636,0.000,0.000,34.601
12299,4.183,0.000,3.268,0.000,12.636,0.000,0.000,34.635
12319,4.183,0.000,3.268,0.000,12.636,0.000,0.000,34.623
12339,4.183,0.000,3.268,0.000,12.636,0.000,0.000,34.643
12359,4.183,0.000,3.268,0.000,12.636,0.000,0.000,34.614
12379,4.183,0.000,3.268,0.000,12.636,0.000,0.000,34.606
12399,4.183,0.000,3.268,0.000,12.636,0.000,0.000,34.631
12419,4.183,0.000,3.268,0.000,12.636,0.000,0.000,34.665
12439,4.182,0.000,3.268,0.000,12.636,0.000,0.000,34.627
12459,4.182,0.000,3.268,0.000,12.636,0.000,0.000,34.642
12479,4.182,0.000,3.268,0.000,12.636,0.000,0.000,34.647
12499,4.182,0.000,3.268,0.000,12.636,0.000,0.000,34.645
12519,4.182,0.000,3.268,0.000,12.636,0.000,0.000,34.633
12539,4.182,0.000,3.268,0.000,12.636,0.000,0.000,34.635
12559,4.182,0.000,3.268,0.000,12.636,0.000,0.000,34.625
12579,4.182,0.000,3.268,0.000,12.636,0.000,0.000,34.650
12599,4.182,0.000,3.268,0.000,12.636,0.000,0.000,34.614
12619,4.182,0.000,3.268,0.000,12.636,0.000,0.000,34.654
12639,4.182,0.000,3.268,0.000,12.636,0.000,0.000,34.654
12659,4.182,0.000,3.268,0.000,12.636,0.000,0.000,34.656
12679,4.182,0.000,3.268,0.000,12.636,0.000,0.000,34.654
12699,4.182,0.000,3.268,0.000,12.636,0.000,0.000,34.645
12719,4.182,0.000,3.268,0.000,12.636,0.000,0.000,34.627
12739,4.182,0.000,3.268,0.000,12.636,0.000,0.000,34.614
12759,4.182,0.000,3.268,0.000,12.636,0.000,0.000,34.657
12779,4.182,0.000,3.268,0.000,12.636,0.000,0.000,34.689
12799,4.182,0.000,3.268,0.000,12.636,0.000,0.000,34.604
12819,4.182,0.000,3.268,0.000,12.636,0.000,0.000,34.639
12839,4.182,0.000,3.268,0.000,12.636,0.000,0.000,34.663
12859,4.182,0.000,3.268,0.000,12.636,0.000,0.000,34.615
12879,4.182,0.000,3.268,0.000,12.636,0.000,0.000,34.641
12899,4.182,0.000,3.268,0.000,12.636,0.000,0.000,34.643
12919,4.182,0.000,3.268,0.000,12.636,0.000,0.000,34.674
12939,4.182,0.000,3.268,0.000,12.636,0.000,0.000,34.641
12959,4.182,0.000,3.268,0.000,12.636,0.000,0.000,34.672
12979,4.182,0.000,3.268,0.000,12.636,0.000,0.000,34.644
12999,4.182,0.000,3.268,0.000,12.636,0.000,0.000,34.609
13019,4.182,0.000,3.268,0.000,12.636,0.000,0.000,34.619
13039,4.182,0.000,3.268,0.000,12.636,0.000,0.000,34.605
13059,4.182,0.000,3.268,0.000,12.636,0.000,0.000,34.640
13079,4.182,0.000,3.268,0.000,12.636,0.000,0.000,34.611
13099,4.181,0.000,3.268,0.000,12.636,0.000,0.000,34.636
13119,4.182,0.000,3.268,0.000,12.636,0.000,0.000,34.650
13139,4.181,0.000,3.268,0.000,12.636,0.000,0.000,34.642
13159,4.181,0.000,3.268,0.000,12.636,0.000,0.000,34.635
13179,4.181,0.000,3.268,0.000,12.636,0.000,0.000,34.612
13199,4.181,0.000,3.268,0.000,12.636,0.000,0.000,34.597
13219,4.181,0.000,3.268,0.000,12.636,0.000,0.000,34.632
13239,4.181,0.000,3.268,0.000,12.636,0.000,0.000,34.625
13259,4.181,0.000,3.268,0.000,12.636,0.000,0.000,34.673
13279,4.181,0.000,3.268,0.000,12.636,0.000,0.000,34.667
13298,3.620,-10.051,3.268,0.006,12.636,0.021,-0.012,34.625
13318,3.529,-10.051,3.268,0.062,12.636,0.220,-0.003,35.346
13338,3.491,-10.050,3.268,0.117,12.636,0.416,-0.002,36.537
13358,3.463,-10.050,3.268,0.173,12.636,0.610,-0.001,37.751
13378,3.438,-10.049,3.268,0.229,12.636,0.802,-0.001,38.929
13398,3.415,-10.049,3.268,0.285,12.636,0.994,-0.001,40.211
13418,3.393,-10.048,3.268,0.341,12.636,1.184,-0.001,41.206
13438,3.371,-10.048,3.268,0.397,12.636,1.372,-0.001,42.167
13458,3.349,-10.048,3.268,0.452,12.636,1.560,-0.001,43.178
13478,3.327,-10.048,3.268,0.508,12.636,1.746,-0.001,43.972
13498,3.304,-10.047,3.268,0.564,12.636,1.931,-0.001,44.612
13518,3.282,-10.048,3.268,0.620,12.636,2.115,-0.001,45.288
13538,3.260,-10.046,3.268,0.676,12.636,2.298,-0.001,45.989
13558,3.238,-10.047,3.268,0.731,12.636,2.479,-0.001,46.829
13578,3.216,-10.047,3.268,0.787,12.636,2.659,-0.001,47.505
13598,3.193,-10.047,3.268,0.843,12.636,2.838,-0.001,47.854
13618,3.172,-10.047,3.268,0.899,12.636,3.016,-0.001,48.515
13638,3.150,-10.047,3.268,0.955,12.636,3.192,-0.001,49.097
13658,3.129,-10.046,3.268,1.011,12.636,3.367,-0.001,49.561
13678,3.109,-10.047,3.268,1.066,12.636,3.541,-0.001,50.094
13698,3.088,-10.047,3.268,1.122,12.636,3.714,-0.001,50.584
13718,3.069,-10.047,3.268,1.178,12.636,3.886,-0.001,51.324
13738,3.050,-10.047,3.268,1.234,12.636,4.057,-0.001,51.575
13758,3.032,-10.047,3.268,1.290,12.636,4.227,-0.001,52.022
13778,3.014,-10.047,3.268,1.345,12.636,4.395,-0.001,52.546
13798,2.996,-10.046,3.268,1.401,12.636,4.563,-0.001,53.120
13818,2.979,-10.047,3.268,1.457,12.636,4.730,-0.001,53.508
13838,2.962,-10.046,3.268,1.513,12.636,4.896,-0.001,53.766
13858,2.945,-10.047,3.268,1.569,12.636,5.061,-0.001,54.250
13878,2.929,-10.046,3.268,1.624,12.636,5.225,-0.001,54.775
13898,2.911,-10.047,3.268,1.680,12.636,5.388,-0.001,55.090
13918,2.893,-10.047,3.268,1.736,12.636,5.550,-0.001,55.517
13938,2.876,-10.046,3.268,1.792,12.636,5.711,-0.001,55.797
13958,2.859,-10.047,3.268,1.848,12.636,5.871,-0.001,56.123
13978,2.841,-10.047,3.268,1.904,12.636,6.030,-0.001,56.546
13998,2.823,-10.046,3.268,1.959,12.636,6.188,-0.001,56.870
14018,2.806,-10.046,3.268,2.015,12.636,6.345,-0.001,57.230
14038,2.787,-10.047,3.268,2.071,12.636,6.501,-0.001,57.871
14058,2.769,-10.047,3.268,2.127,12.636,6.656,-0.001,58.020
14078,2.750,-10.047,3.268,2.183,12.636,6.810,-0.001,58.289
14098,2.732,-10.047,3.268,2.238,12.636,6.963,-0.001,58.676
14118,2.713,-10.047,3.268,2.294,12.636,7.115,-0.001,58.958
14138,2.694,-10.047,3.268,2.350,12.636,7.266,-0.001,59.747
14158,2.674,-10.046,3.268,2.406,12.636,7.416,-0.001,59.902
14178,2.655,-10.047,3.268,2.462,12.636,7.564,-0.001,60.153
14198,2.636,-10.047,3.268,2.518,12.636,7.712,-0.001,60.577
14218,2.616,-10.046,3.268,2.573,12.636,7.859,-0.001,61.172
14238,2.596,-10.047,3.268,2.629,12.636,8.004,-0.001,61.389
14258,2.575,-10.047,3.268,2.685,12.636,8.148,-0.001,61.696
14278,2.553,-10.046,3.268,2.741,12.636,8.291,-0.001,62.189
14298,2.530,-10.047,3.268,2.797,12.636,8.433,-0.001,62.408
14318,2.506,-10.047,3.268,2.852,12.636,8.574,-0.001,63.114
14337,3.305,0.000,3.268,2.864,12.636,8.604,0.005,62.909
14357,3.357,0.000,3.268,2.864,12.636,8.604,0.002,62.290
14377,3.371,0.000,3.268,2.864,12.636,8.604,0.000,60.775
14397,3.374,0.000,3.268,2.864,12.636,8.604,0.000,59.303
14417,3.375,0.000,3.268,2.864,12.636,8.604,0.000,58.030
14437,3.375,0.000,3.268,2.864,12.636,8.604,0.000,56.570
14457,3.375,0.000,3.268,2.864,12.636,8.604,0.000,55.091
14477,3.376,0.000,3.268,2.864,12.636,8.604,0.000,53.906
14497,3.376,0.000,3.268,2.864,12.636,8.604,0.000,52.698
14517,3.376,0.000,3.268,2.864,12.636,8.604,0.000,51.620
14537,3.377,0.000,3.268,2.864,12.636,8.604,0.000,50.533
14557,3.378,0.000,3.268,2.864,12.636,8.604,0.000,49.558
14577,3.378,0.000,3.268,2.864,12.636,8.604,0.000,48.687
14597,3.379,0.000,3.268,2.864,12.636,8.604,0.000,47.747
14617,3.380,0.000,3.268,2.864,12.636,8.604,0.000,47.156
14637,3.381,0.000,3.268,2.864,12.636,8.604,0.000,46.420
14657,3.381,0.000,3.268,2.864,12.636,8.604,0.000,45.414
14677,3.382,0.000,3.268,2.864,12.636,8.604,0.000,44.914
14697,3.383,0.000,3.268,2.864,12.636,8.604,0.000,44.282
14717,3.384,0.000,3.268,2.864,12.636,8.604,0.000,43.630
14737,3.384,0.000,3.268,2.864,12.636,8.604,0.000,43.193
14757,3.385,0.000,3.268,2.864,12.636,8.604,0.000,42.724
14777,3.386,0.000,3.268,2.864,12.636,8.604,0.000,42.137
14797,3.386,0.000,3.268,2.864,12.636,8.604,0.000,41.732
14817,3.387,0.000,3.268,2.864,12.636,8.604,0.000,41.297
14837,3.387,0.000,3.268,2.864,12.636,8.604,0.000,40.911
14857,3.387,0.000,3.268,2.864,12.636,8.604,0.000,40.597
14877,3.388,0.000,3.268,2.864,12.636,8.604,0.000,40.257
14897,3.388,0.000,3.268,2.864,12.636,8.604,0.000,39.904
14917,3.388,0.000,3.268,2.864,12.636,8.604,0.000,39.581
14937,3.389,0.000,3.268,2.864,12.636,8.604,0.000,39.314
14957,3.389,0.000,3.268,2.864,12.636,8.604,0.000,39.036
14977,3.389,0.000,3.268,2.864,12.636,8.604,0.000,38.760
14997,3.389,0.000,3.268,2.864,12.636,8.604,0.000,38.568
15017,3.389,0.000,3.268,2.864,12.636,8.604,0.000,38.317
15037,3.389,0.000,3.268,2.864,12.636,8.604,0.000,38.147
15057,3.389,0.000,3.268,2.864,12.636,8.604,0.000,37.938
15077,3.390,0.000,3.268,2.864,12.636,8.604,0.000,37.728
15097,3.390,0.000,3.268,2.864,12.636,8.604,0.000,37.547
15117,3.390,0.000,3.268,2.864,12.636,8.604,0.000,37.420
15137,3.390,0.000,3.268,2.864,12.636,8.604,0.000,37.244
15157,3.390,0.000,3.268,2.864,12.636,8.604,0.000,37.100
15177,3.390,0.000,3.268,2.864,12.636,8.604,0.000,36.953
15197,3.390,0.000,3.268,2.864,12.636,8.604,0.000,36.844
15217,3.390,0.000,3.268,2.864,12.636,8.604,0.000,36.719
15237,3.390,0.000,3.268,2.864,12.636,8.604,0.000,36.589
15257,3.390,0.000,3.268,2.864,12.636,8.604,0.000,36.519
15277,3.390,0.000,3.268,2.864,12.636,8.604,0.000,36.433
15297,3.390,0.000,3.268,2.864,12.636,8.604,0.000,36.337
15317,3.390,0.000,3.268,2.864,12.636,8.604,0.000,36.194
15337,3.390,0.000,3.268,2.864,12.636,8.604,0.000,36.154
15357,3.390,0.000,3.268,2.864,12.636,8.604,0.000,36.077
15377,3.390,0.000,3.268,2.864,12.636,8.604,0.000,35.968
15397,3.390,0.000,3.268,2.864,12.636,8.604,0.000,35.895
15417,3.390,0.000,3.268,2.864,12.636,8.604,0.000,35.803
15437,3.390,0.000,3.268,2.864,12.636,8.604,0.000,35.749
15457,3.390,0.000,3.268,2.864,12.636,8.604,0.000,35.769
15477,3.390,0.000,3.268,2.864,12.636,8.604,0.000,35.686
15497,3.390,0.000,3.268,2.864,12.636,8.604,0.000,35.591
15517,3.390,0.000,3.268,2.864,12.636,8.604,0.000,35.527
15537,3.390,0.000,3.268,2.864,12.636,8.604,0.000,35.482
15557,3.390,0.000,3.268,2.864,12.636,8.604,0.000,35.471
15577,3.390,0.000,3.268,2.864,12.636,8.604,0.000,35.434
15597,3.390,0.000,3.268,2.864,12.636,8.604,0.000,35.399
15617,3.390,0.000,3.268,2.864,12.636,8.604,0.000,35.344
15637,3.390,0.000,3.268,2.864,12.636,8.604,0.000,35.324
15657,3.390,0.000,3.268,2.864,12.636,8.604,0.000,35.281
15677,3.390,0.000,3.268,2.864,12.636,8.604,0.000,35.247
15697,3.390,0.000,3.268,2.864,12.636,8.604,0.000,35.218
15717,3.390,0.000,3.268,2.864,12.636,8.604,0.000,35.208
15737,3.390,0.000,3.268,2.864,12.636,8.604,0.000,35.139
15757,3.390,0.000,3.268,2.864,12.636,8.604,0.000,35.129
15777,3.390,0.000,3.268,2.864,12.636,8.604,0.000,35.093
15797,3.390,0.000,3.268,2.864,12.636,8.604,0.000,35.072
15817,3.390,0.000,3.268,2.864,12.636,8.604,0.000,35.072
15837,3.390,0.000,3.268,2.864,12.636,8.604,0.000,35.037
15857,3.390,0.000,3.268,2.864,12.636,8.604,0.000,35.004
15877,3.390,0.000,3.268,2.864,12.636,8.604,0.000,34.980
15897,3.390,0.000,3.268,2.864,12.636,8.604,0.000,34.995
15917,3.390,0.000,3.268,2.864,12.636,8.604,0.000,34.970
15937,3.390,0.000,3.268,2.864,12.636,8.604,0.000,34.963
15957,3.390,0.000,3.268,2.864,12.636,8.604,0.000,34.956
15977,3.390,0.000,3.268,2.864,12.636,8.604,0.000,34.913
15997,3.390,0.000,3.268,2.864,12.636,8.604,0.000,34.914
16017,3.390,0.000,3.268,2.864,12.636,8.604,0.000,34.850
16037,3.390,0.000,3.268,2.864,12.636,8.604,0.000,34.912
16057,3.390,0.000,3.268,2.864,12.636,8.604,0.000,34.880
16077,3.390,0.000,3.268,2.864,12.636,8.604,0.000,34.867
16097,3.390,0.000,3.268,2.864,12.636,8.604,0.000,34.841
16117,3.390,0.000,3.268,2.864,12.636,8.604,0.000,34.805
16137,3.390,0.000,3.268,2.864,12.636,8.604,0.000,34.850
16157,3.390,0.000,3.268,2.864,12.636,8.604,0.000,34.846
16177,3.390,0.000,3.268,2.864,12.636,8.604,0.000,34.797
16197,3.390,0.000,3.268,2.864,12.636,8.604,0.000,34.781
16217,3.390,0.000,3.268,2.864,12.636,8.604,0.000,34.792
16237,3.390,0.000,3.268,2.864,12.636,8.604,0.000,34.812
16257,3.390,0.000,3.268,2.864,12.636,8.604,0.000,34.830
16277,3.390,0.000,3.268,2.864,12.636,8.604,0.000,34.786
16297,3.390,0.000,3.268,2.864,12.636,8.604,0.000,34.770
16317,3.390,0.000,3.268,2.864,12.636,8.604,0.000,34.736
16337,3.390,0.000,3.268,2.864,12.636,8.604,0.000,34.755
16357,3.390,0.000,3.268,2.864,12.636,8.604,0.000,34.713
16377,3.390,0.000,3.268,2.864,12.636,8.604,0.000,34.733
16397,3.390,0.000,3.268,2.864,12.636,8.604,0.000,34.654
16417,3.390,0.000,3.268,2.864,12.636,8.604,0.000,34.732
16437,3.390,0.000,3.268,2.864,12.636,8.604,0.000,34.690
16457,3.390,0.000,3.268,2.864,12.636,8.604,0.000,34.692
16477,3.390,0.000,3.268,2.864,12.636,8.604,0.000,34.689
16497,3.390,0.000,3.268,2.864,12.636,8.604,0.000,34.715
16517,3.390,0.000,3.268,2.864,12.636,8.604,0.000,34.690
16537,3.390,0.000,3.268,2.864,12.636,8.604,0.000,34.741
16557,3.390,0.000,3.268,2.864,12.636,8.604,0.000,34.706
16577,3.390,0.000,3.268,2.864,12.636,8.604,0.000,34.681
16597,3.390,0.000,3.268,2.864,12.636,8.604,0.000,34.688
16617,3.390,0.000,3.268,2.864,12.636,8.604,0.000,34.721
16637,3.390,0.000,3.268,2.864,12.636,8.604,0.000,34.727
16657,3.390,0.000,3.268,2.864,12.636,8.604,0.000,34.660
16677,3.390,0.000,3.268,2.864,12.636,8.604,0.000,34.697
16697,3.390,0.000,3.268,2.864,12.636,8.604,0.000,34.687
16717,3.390,0.000,3.268,2.864,12.636,8.604,0.000,34.659
16737,3.390,0.000,3.268,2.864,12.636,8.604,0.000,34.676
16757,3.390,0.000,3.268,2.864,12.636,8.604,0.000,34.687
16777,3.390,0.000,3.268,2.864,12.636,8.604,0.000,34.648
16797,3.390,0.000,3.268,2.864,12.636,8.604,0.000,34.639
16817,3.390,0.000,3.268,2.864,12.636,8.604,0.000,34.654
16837,3.390,0.000,3.268,2.864,12.636,8.604,0.000,34.681
16857,3.390,0.000,3.268,2.864,12.636,8.604,0.000,34.666
16877,3.390,0.000,3.268,2.864,12.636,8.604,0.000,34.664
16897,3.390,0.000,3.268,2.864,12.636,8.604,0.000,34.629
16917,3.390,0.000,3.268,2.864,12.636,8.604,0.000,34.673
16937,3.390,0.000,3.268,2.864,12.636,8.604,0.000,34.630
16957,3.390,0.000,3.268,2.864,12.636,8.604,0.000,34.655
16977,3.390,0.000,3.268,2.864,12.636,8.604,0.000,34.660
16997,3.390,0.000,3.268,2.864,12.636,8.604,0.000,34.673
17017,3.390,0.000,3.268,2.864,12.636,8.604,0.000,34.648
17037,3.390,0.000,3.268,2.864,12.636,8.604,0.000,34.668
17057,3.390,0.000,3.268,2.864,12.636,8.604,0.000,34.667
17077,3.390,0.000,3.268,2.864,12.636,8.604,0.000,34.681
17097,3.390,0.000,3.268,2.864,12.636,8.604,0.000,34.632
17117,3.390,0.000,3.268,2.864,12.636,8.604,0.000,34.639
17137,3.390,0.000,3.268,2.864,12.636,8.604,0.000,34.647
17157,3.390,0.000,3.268,2.864,12.636,8.604,0.000,34.616
17177,3.390,0.000,3.268,2.864,12.636,8.604,0.000,34.588
17197,3.390,0.000,3.268,2.864,12.636,8.604,0.000,34.648
17217,3.390,0.000,3.268,2.864,12.636,8.604,0.000,34.633
17237,3.390,0.000,3.268,2.864,12.636,8.604,0.000,34.661
17257,3.390,0.000,3.268,2.864,12.636,8.604,0.000,34.647
17277,3.390,0.000,3.268,2.864,12.636,8.604,0.000,34.645
17297,3.390,0.000,3.268,2.864,12.636,8.604,0.000,34.628
17317,3.390,0.000,3.268,2.864,12.636,8.604,0.000,34.644
17337,3.390,0.000,3.268,2.864,12.636,8.604,0.000,34.642
17357,3.390,0.000,3.268,2.864,12.636,8.604,0.000,34.656
17377,3.390,0.000,3.268,2.864,12.636,8.604,0.000,34.634
17397,3.390,0.000,3.268,2.864,12.636,8.604,0.000,34.667
17417,3.390,0.000,3.268,2.864,12.636,8.604,0.000,34.666
17437,3.390,0.000,3.268,2.864,12.636,8.604,0.000,34.640
17457,3.390,0.000,3.268,2.864,12.636,8.604,0.000,34.626
17477,3.390,0.000,3.268,2.864,12.636,8.604,0.000,34.610
17497,3.390,0.000,3.268,2.864,12.636,8.604,0.000,34.633
17517,3.390,0.000,3.268,2.864,12.636,8.604,0.000,34.610
17537,3.390,0.000,3.268,2.864,12.636,8.604,0.000,34.639
17557,3.390,0.000,3.268,2.864,12.636,8.604,0.000,34.637
17577,3.390,0.000,3.268,2.864,12.636,8.604,0.000,34.664
17597,3.390,0.000,3.268,2.864,12.636,8.604,0.000,34.625
17617,3.390,0.000,3.268,2.864,12.636,8.604,0.000,34.646
17637,3.390,0.000,3.268,2.864,12.636,8.604,0.000,34.647
17657,3.390,0.000,3.268,2.864,12.636,8.604,0.000,34.614
17677,3.390,0.000,3.268,2.864,12.636,8.604,0.000,34.631
17697,3.390,0.000,3.268,2.864,12.636,8.604,0.000,34.592
17717,3.390,0.000,3.268,2.864,12.636,8.604,0.000,34.635
17737,3.390,0.000,3.268,2.864,12.636,8.604,0.000,34.613
17757,3.390,0.000,3.268,2.864,12.636,8.604,0.000,34.639
17777,3.390,0.000,3.268,2.864,12.636,8.604,0.000,34.618
17797,3.390,0.000,3.268,2.864,12.636,8.604,0.000,34.628
17817,3.390,0.000,3.268,2.864,12.636,8.604,0.000,34.620
17837,3.390,0.000,3.268,2.864,12.636,8.604,0.000,34.616
17857,3.390,0.000,3.268,2.864,12.636,8.604,0.000,34.595
17877,3.390,0.000,3.268,2.864,12.636,8.604,0.000,34.646
17897,3.390,0.000,3.268,2.864,12.636,8.604,0.000,34.579
17917,3.390,0.000,3.268,2.864,12.636,8.604,0.000,34.585
17922,3.390,0.000,3.268,2.864,12.636,8.604,0.000,34.659