File: data/T35/3C/6.csv
time_s,voltage_v,current_a,chargecapacity_ah,dischargecapacity_ah,charge_energy_wh,discharge_energy_wh,voltagedot_v_per_s,temp_degc
1,3.924,0.000,0.000,0.000,0.000,0.000,0.000,27.617
14,3.924,0.000,0.000,0.000,0.000,0.000,0.000,27.842
27,3.924,0.000,0.000,0.000,0.000,0.000,0.000,28.111
40,3.924,0.000,0.000,0.000,0.000,0.000,0.000,28.383
53,3.924,0.000,0.000,0.000,0.000,0.000,0.000,28.574
65,4.022,1.625,0.002,0.000,0.009,0.000,0.001,28.764
78,4.032,1.625,0.008,0.000,0.033,0.000,0.001,29.003
91,4.037,1.625,0.014,0.000,0.056,0.000,0.000,29.151
104,4.041,1.625,0.020,0.000,0.080,0.000,0.000,29.371
117,4.044,1.625,0.026,0.000,0.104,0.000,0.000,29.617
130,4.046,1.625,0.032,0.000,0.128,0.000,0.000,29.760
143,4.049,1.625,0.037,0.000,0.151,0.000,0.000,30.011
156,4.051,1.625,0.043,0.000,0.175,0.000,0.000,30.186
169,4.053,1.625,0.049,0.000,0.199,0.000,0.000,30.458
182,4.055,1.625,0.055,0.000,0.223,0.000,0.000,30.635
195,4.057,1.625,0.061,0.000,0.246,0.000,0.000,30.882
208,4.059,1.625,0.067,0.000,0.270,0.000,0.000,31.066
221,4.060,1.625,0.073,0.000,0.294,0.000,0.000,31.280
234,4.063,1.625,0.079,0.000,0.318,0.000,0.000,31.446
247,4.064,1.625,0.084,0.000,0.342,0.000,0.000,31.640
260,4.066,1.625,0.090,0.000,0.366,0.000,0.000,31.855
273,4.068,1.625,0.096,0.000,0.390,0.000,0.000,31.991
286,4.070,1.625,0.102,0.000,0.413,0.000,0.000,32.103
299,4.072,1.625,0.108,0.000,0.437,0.000,0.000,32.223
312,4.074,1.625,0.114,0.000,0.461,0.000,0.000,32.363
325,4.076,1.625,0.120,0.000,0.485,0.000,0.000,32.522
338,4.078,1.625,0.126,0.000,0.509,0.000,0.000,32.607
351,4.080,1.625,0.131,0.000,0.533,0.000,0.000,32.689
364,4.082,1.625,0.137,0.000,0.557,0.000,0.000,32.829
377,4.084,1.625,0.143,0.000,0.581,0.000,0.000,32.922
390,4.086,1.625,0.149,0.000,0.605,0.000,0.000,33.094
403,4.088,1.625,0.155,0.000,0.629,0.000,0.000,33.152
416,4.090,1.625,0.161,0.000,0.653,0.000,0.000,33.246
429,4.092,1.625,0.167,0.000,0.677,0.000,0.000,33.292
442,4.094,1.625,0.172,0.000,0.701,0.000,0.000,33.402
455,4.097,1.625,0.178,0.000,0.725,0.000,0.000,33.461
468,4.099,1.625,0.184,0.000,0.749,0.000,0.000,33.552
481,4.101,1.625,0.190,0.000,0.773,0.000,0.000,33.598
494,4.103,1.625,0.196,0.000,0.797,0.000,0.000,33.609
507,4.106,1.625,0.202,0.000,0.821,0.000,0.000,33.677
520,4.108,1.625,0.208,0.000,0.845,0.000,0.000,33.772
533,4.110,1.625,0.214,0.000,0.869,0.000,0.000,33.835
546,4.112,1.625,0.219,0.000,0.894,0.000,0.000,33.920
559,4.115,1.625,0.225,0.000,0.918,0.000,0.000,33.915
572,4.117,1.625,0.231,0.000,0.942,0.000,0.000,33.986
585,4.119,1.625,0.237,0.000,0.966,0.000,0.000,34.048
598,4.121,1.625,0.243,0.000,0.990,0.000,0.000,34.085
611,4.124,1.625,0.249,0.000,1.014,0.000,0.000,34.125
624,4.126,1.625,0.255,0.000,1.039,0.000,0.000,34.123
637,4.129,1.625,0.260,0.000,1.063,0.000,0.000,34.224
650,4.131,1.625,0.266,0.000,1.087,0.000,0.000,34.196
663,4.133,1.625,0.272,0.000,1.111,0.000,0.000,34.239
676,4.136,1.625,0.278,0.000,1.136,0.000,0.000,34.338
689,4.138,1.625,0.284,0.000,1.160,0.000,0.000,34.319
702,4.140,1.625,0.290,0.000,1.184,0.000,0.000,34.402
715,4.143,1.625,0.296,0.000,1.208,0.000,0.000,34.423
728,4.145,1.625,0.302,0.000,1.233,0.000,0.000,34.428
741,4.148,1.625,0.307,0.000,1.257,0.000,0.000,34.513
754,4.150,1.625,0.313,0.000,1.281,0.000,0.000,34.571
767,4.152,1.625,0.319,0.000,1.306,0.000,0.000,34.569
780,4.155,1.625,0.325,0.000,1.330,0.000,0.000,34.596
793,4.157,1.625,0.331,0.000,1.355,0.000,0.000,34.640
806,4.159,1.625,0.337,0.000,1.379,0.000,0.000,34.659
819,4.162,1.625,0.343,0.000,1.403,0.000,0.000,34.694
832,4.164,1.625,0.349,0.000,1.428,0.000,0.000,34.711
845,4.166,1.625,0.354,0.000,1.452,0.000,0.000,34.728
858,4.169,1.625,0.360,0.000,1.477,0.000,0.000,34.769
871,4.171,1.625,0.366,0.000,1.501,0.000,0.000,34.796
884,4.174,1.625,0.372,0.000,1.526,0.000,0.000,34.800
897,4.176,1.625,0.378,0.000,1.550,0.000,0.000,34.795
910,4.178,1.625,0.384,0.000,1.575,0.000,0.000,34.850
923,4.181,1.625,0.390,0.000,1.599,0.000,0.000,34.865
936,4.183,1.625,0.395,0.000,1.624,0.000,0.000,34.874
949,4.185,1.625,0.401,0.000,1.648,0.000,0.000,34.934
962,4.187,1.625,0.407,0.000,1.673,0.000,0.000,34.912
975,4.190,1.625,0.413,0.000,1.698,0.000,0.000,34.933
988,4.192,1.625,0.419,0.000,1.722,0.000,0.000,34.956
1001,4.194,1.625,0.425,0.000,1.747,0.000,0.000,34.968
1014,4.196,1.625,0.431,0.000,1.771,0.000,0.000,35.036
1027,4.198,1.625,0.437,0.000,1.796,0.000,0.000,35.058
1040,4.200,1.620,0.442,0.000,1.820,0.000,0.000,35.045
1053,4.200,1.583,0.448,0.000,1.844,0.000,0.000,35.076
1066,4.200,1.551,0.454,0.000,1.868,0.000,0.000,35.040
1079,4.200,1.522,0.459,0.000,1.891,0.000,0.000,35.070
1092,4.200,1.496,0.465,0.000,1.914,0.000,0.000,35.100
1105,4.200,1.470,0.470,0.000,1.937,0.000,0.000,35.101
1118,4.200,1.445,0.475,0.000,1.959,0.000,0.000,35.157
1131,4.200,1.422,0.480,0.000,1.980,0.000,0.000,35.160
1144,4.200,1.399,0.486,0.000,2.002,0.000,0.000,35.117
1157,4.200,1.377,0.491,0.000,2.023,0.000,0.000,35.117
1170,4.200,1.355,0.496,0.000,2.044,0.000,0.000,35.106
1183,4.200,1.334,0.500,0.000,2.064,0.000,0.000,35.143
1196,4.200,1.313,0.505,0.000,2.084,0.000,0.000,35.130
1209,4.200,1.293,0.510,0.000,2.104,0.000,0.000,35.117
1222,4.200,1.273,0.514,0.000,2.123,0.000,0.000,35.147
1235,4.200,1.254,0.519,0.000,2.142,0.000,0.000,35.171
1248,4.200,1.234,0.524,0.000,2.161,0.000,0.000,35.148
1261,4.200,1.215,0.528,0.000,2.180,0.000,0.000,35.197
1274,4.200,1.196,0.532,0.000,2.198,0.000,0.000,35.149
1287,4.200,1.179,0.537,0.000,2.216,0.000,0.000,35.169
1300,4.200,1.161,0.541,0.000,2.234,0.000,0.000,35.169
1313,4.200,1.143,0.545,0.000,2.251,0.000,0.000,35.158
1326,4.200,1.125,0.549,0.000,2.268,0.000,0.000,35.153
1339,4.200,1.108,0.553,0.000,2.285,0.000,0.000,35.140
1352,4.200,1.090,0.557,0.000,2.302,0.000,0.000,35.107
1365,4.200,1.074,0.561,0.000,2.318,0.000,0.000,35.137
1378,4.200,1.057,0.565,0.000,2.335,0.000,0.000,35.065
1391,4.200,1.041,0.569,0.000,2.350,0.000,0.000,35.119
1404,4.200,1.024,0.572,0.000,2.366,0.000,0.000,35.079
1417,4.200,1.007,0.576,0.000,2.382,0.000,0.000,35.099
1430,4.200,0.992,0.580,0.000,2.397,0.000,0.000,35.082
1443,4.200,0.977,0.583,0.000,2.412,0.000,0.000,35.091
1456,4.200,0.961,0.587,0.000,2.426,0.000,0.000,35.045
1469,4.200,0.945,0.590,0.000,2.441,0.000,0.000,35.079
1482,4.200,0.930,0.593,0.000,2.455,0.000,0.000,35.049
1495,4.200,0.915,0.597,0.000,2.469,0.000,0.000,35.048
1508,4.200,0.900,0.600,0.000,2.483,0.000,0.000,35.033
1521,4.200,0.885,0.603,0.000,2.496,0.000,0.000,35.050
1534,4.200,0.871,0.606,0.000,2.510,0.000,0.000,35.052
1547,4.200,0.855,0.610,0.000,2.523,0.000,0.000,34.973
1560,4.200,0.842,0.613,0.000,2.535,0.000,0.000,35.033
1573,4.200,0.827,0.616,0.000,2.548,0.000,0.000,35.023
1586,4.200,0.814,0.619,0.000,2.561,0.000,0.000,35.033
1599,4.200,0.799,0.622,0.000,2.573,0.000,0.000,35.015
1612,4.200,0.786,0.624,0.000,2.585,0.000,0.000,34.975
1625,4.200,0.773,0.627,0.000,2.597,0.000,0.000,35.006
1638,4.200,0.759,0.630,0.000,2.608,0.000,0.000,35.004
1651,4.200,0.745,0.633,0.000,2.620,0.000,0.000,34.980
1664,4.200,0.732,0.635,0.000,2.631,0.000,0.000,34.980
1677,4.200,0.719,0.638,0.000,2.642,0.000,0.000,34.959
1690,4.200,0.706,0.641,0.000,2.653,0.000,0.000,34.998
1703,4.200,0.694,0.643,0.000,2.663,0.000,0.000,34.987
1716,4.200,0.681,0.646,0.000,2.674,0.000,0.000,34.971
1729,4.200,0.669,0.648,0.000,2.684,0.000,0.000,34.940
1742,4.200,0.657,0.650,0.000,2.694,0.000,0.000,34.966
1755,4.200,0.645,0.653,0.000,2.704,0.000,0.000,34.937
1768,4.200,0.633,0.655,0.000,2.714,0.000,0.000,34.940
1781,4.200,0.621,0.657,0.000,2.723,0.000,0.000,34.886
1794,4.200,0.610,0.660,0.000,2.732,0.000,0.000,34.893
1807,4.200,0.598,0.662,0.000,2.742,0.000,0.000,34.890
1820,4.200,0.588,0.664,0.000,2.751,0.000,0.000,34.850
1833,4.200,0.576,0.666,0.000,2.759,0.000,0.000,34.886
1846,4.200,0.565,0.668,0.000,2.768,0.000,0.000,34.846
1859,4.200,0.555,0.670,0.000,2.776,0.000,0.000,34.876
1872,4.200,0.543,0.672,0.000,2.785,0.000,0.000,34.839
1885,4.200,0.533,0.674,0.000,2.793,0.000,0.000,34.808
1898,4.200,0.523,0.676,0.000,2.801,0.000,0.000,34.870
1911,4.200,0.513,0.678,0.000,2.809,0.000,0.000,34.778
1924,4.200,0.503,0.680,0.000,2.817,0.000,0.000,34.824
1937,4.200,0.493,0.681,0.000,2.824,0.000,0.000,34.825
1950,4.200,0.483,0.683,0.000,2.831,0.000,0.000,34.800
1963,4.200,0.474,0.685,0.000,2.839,0.000,0.000,34.799
1976,4.200,0.465,0.687,0.000,2.846,0.000,0.000,34.786
1989,4.200,0.456,0.688,0.000,2.853,0.000,0.000,34.817
2002,4.200,0.446,0.690,0.000,2.860,0.000,0.000,34.757
2015,4.200,0.438,0.691,0.000,2.866,0.000,0.000,34.758
2028,4.200,0.429,0.693,0.000,2.873,0.000,0.000,34.787
2041,4.200,0.421,0.695,0.000,2.879,0.000,0.000,34.773
2054,4.200,0.412,0.696,0.000,2.886,0.000,0.000,34.764
2067,4.200,0.404,0.697,0.000,2.892,0.000,0.000,34.762
2080,4.200,0.396,0.699,0.000,2.898,0.000,0.000,34.766
2093,4.200,0.388,0.700,0.000,2.904,0.000,0.000,34.750
2106,4.200,0.380,0.702,0.000,2.910,0.000,0.000,34.765
2119,4.200,0.373,0.703,0.000,2.915,0.000,0.000,34.705
2132,4.200,0.365,0.704,0.000,2.921,0.000,0.000,34.698
2145,4.200,0.357,0.706,0.000,2.926,0.000,0.000,34.703
2158,4.200,0.350,0.707,0.000,2.932,0.000,0.000,34.721
2171,4.200,0.343,0.708,0.000,2.937,0.000,0.000,34.694
2184,4.200,0.336,0.709,0.000,2.942,0.000,0.000,34.702
2197,4.200,0.329,0.711,0.000,2.947,0.000,0.000,34.691
2210,4.200,0.322,0.712,0.000,2.952,0.000,0.000,34.709
2223,4.200,0.315,0.713,0.000,2.957,0.000,0.000,34.718
2236,4.200,0.309,0.714,0.000,2.962,0.000,0.000,34.710
2249,4.200,0.304,0.715,0.000,2.966,0.000,0.000,34.701
2262,4.200,0.297,0.716,0.000,2.971,0.000,0.000,34.680
2275,4.200,0.291,0.717,0.000,2.975,0.000,0.000,34.642
2288,4.200,0.285,0.718,0.000,2.980,0.000,0.000,34.693
2301,4.200,0.279,0.719,0.000,2.984,0.000,0.000,34.670
2314,4.200,0.274,0.720,0.000,2.988,0.000,0.000,34.650
2327,4.200,0.267,0.721,0.000,2.992,0.000,0.000,34.668
2340,4.200,0.262,0.722,0.000,2.996,0.000,0.000,34.626
2353,4.200,0.257,0.723,0.000,3.000,0.000,0.000,34.624
2366,4.200,0.252,0.724,0.000,3.004,0.000,0.000,34.630
2379,4.200,0.247,0.725,0.000,3.008,0.000,0.000,34.653
2392,4.200,0.242,0.726,0.000,3.012,0.000,0.000,34.652
2405,4.200,0.236,0.727,0.000,3.015,0.000,0.000,34.643
2418,4.200,0.231,0.728,0.000,3.019,0.000,0.000,34.615
2431,4.200,0.228,0.729,0.000,3.022,0.000,0.000,34.605
2444,4.200,0.223,0.729,0.000,3.026,0.000,0.000,34.630
2457,4.200,0.218,0.730,0.000,3.029,0.000,0.000,34.645
2470,4.200,0.214,0.731,0.000,3.032,0.000,0.000,34.601
2483,4.200,0.209,0.732,0.000,3.036,0.000,0.000,34.592
2496,4.200,0.206,0.732,0.000,3.039,0.000,0.000,34.622
2509,4.200,0.201,0.733,0.000,3.042,0.000,0.000,34.587
2522,4.200,0.197,0.734,0.000,3.045,0.000,0.000,34.645
2535,4.200,0.193,0.735,0.000,3.048,0.000,0.000,34.620
2548,4.200,0.189,0.735,0.000,3.051,0.000,0.000,34.539
2561,4.200,0.186,0.736,0.000,3.053,0.000,0.000,34.627
2574,4.200,0.181,0.737,0.000,3.056,0.000,0.000,34.576
2587,4.200,0.178,0.737,0.000,3.059,0.000,0.000,34.641
2600,4.200,0.174,0.738,0.000,3.062,0.000,0.000,34.596
2613,4.200,0.171,0.739,0.000,3.064,0.000,0.000,34.580
2626,4.200,0.168,0.739,0.000,3.067,0.000,0.000,34.592
2639,4.200,0.164,0.740,0.000,3.069,0.000,0.000,34.585
2652,4.200,0.161,0.740,0.000,3.072,0.000,0.000,34.642
2665,4.200,0.159,0.741,0.000,3.074,0.000,0.000,34.600
2678,4.200,0.154,0.741,0.000,3.077,0.000,0.000,34.600
2691,4.200,0.152,0.742,0.000,3.079,0.000,0.000,34.606
2704,4.200,0.149,0.743,0.000,3.081,0.000,0.000,34.539
2717,4.200,0.146,0.743,0.000,3.083,0.000,0.000,34.572
2730,4.200,0.143,0.744,0.000,3.086,0.000,0.000,34.564
2743,4.200,0.141,0.744,0.000,3.088,0.000,0.000,34.578
2756,4.200,0.137,0.745,0.000,3.090,0.000,0.000,34.546
2769,4.200,0.135,0.745,0.000,3.092,0.000,0.000,34.529
2782,4.200,0.132,0.746,0.000,3.094,0.000,0.000,34.562
2795,4.200,0.130,0.746,0.000,3.096,0.000,0.000,34.578
2808,4.200,0.127,0.747,0.000,3.098,0.000,0.000,34.563
2821,4.200,0.125,0.747,0.000,3.100,0.000,0.000,34.516
2834,4.200,0.122,0.747,0.000,3.102,0.000,0.000,34.532
2847,4.200,0.120,0.748,0.000,3.104,0.000,0.000,34.527
2860,4.200,0.118,0.748,0.000,3.105,0.000,0.000,34.522
2873,4.200,0.115,0.749,0.000,3.107,0.000,0.000,34.537
2886,4.200,0.114,0.749,0.000,3.109,0.000,0.000,34.546
2899,4.200,0.111,0.750,0.000,3.111,0.000,0.000,34.506
2912,4.200,0.109,0.750,0.000,3.112,0.000,0.000,34.535
2925,4.200,0.107,0.750,0.000,3.114,0.000,0.000,34.531
2938,4.200,0.105,0.751,0.000,3.116,0.000,0.000,34.513
2951,4.200,0.103,0.751,0.000,3.117,0.000,0.000,34.529
2964,4.200,0.102,0.751,0.000,3.119,0.000,0.000,34.518
2977,4.200,0.100,0.752,0.000,3.120,0.000,0.000,34.577
2990,4.200,0.098,0.752,0.000,3.122,0.000,0.000,34.488
3003,4.200,0.096,0.753,0.000,3.123,0.000,0.000,34.542
3016,4.200,0.094,0.753,0.000,3.125,0.000,0.000,34.539
3029,4.200,0.092,0.753,0.000,3.126,0.000,0.000,34.581
3042,4.200,0.091,0.754,0.000,3.127,0.000,0.000,34.547
3055,4.200,0.089,0.754,0.000,3.129,0.000,0.000,34.555
3068,4.200,0.088,0.754,0.000,3.130,0.000,0.000,34.507
3081,4.200,0.086,0.755,0.000,3.131,0.000,0.000,34.513
3094,4.200,0.085,0.755,0.000,3.133,0.000,0.000,34.521
3107,4.200,0.083,0.755,0.000,3.134,0.000,0.000,34.486
3120,4.200,0.082,0.755,0.000,3.135,0.000,0.000,34.514
3133,4.200,0.080,0.756,0.000,3.136,0.000,0.000,34.535
3146,4.200,0.079,0.756,0.000,3.138,0.000,0.000,34.508
3159,4.200,0.077,0.756,0.000,3.139,0.000,0.000,34.528
3172,4.200,0.077,0.757,0.000,3.140,0.000,0.000,34.480
3185,4.200,0.075,0.757,0.000,3.141,0.000,0.000,34.530
3198,4.200,0.073,0.757,0.000,3.142,0.000,0.000,34.494
3211,4.200,0.072,0.757,0.000,3.143,0.000,0.000,34.519
3224,4.200,0.071,0.758,0.000,3.144,0.000,0.000,34.501
3237,4.200,0.070,0.758,0.000,3.146,0.000,0.000,34.530
3250,4.200,0.068,0.758,0.000,3.147,0.000,0.000,34.499
3263,4.200,0.068,0.758,0.000,3.148,0.000,0.000,34.484
3276,4.200,0.066,0.759,0.000,3.149,0.000,0.000,34.514
3289,4.196,0.000,0.759,0.000,3.149,0.000,0.000,34.513
3302,4.195,0.000,0.759,0.000,3.149,0.000,0.000,34.520
3315,4.195,0.000,0.759,0.000,3.149,0.000,0.000,34.483
3328,4.195,0.000,0.759,0.000,3.149,0.000,0.000,34.502
3341,4.194,0.000,0.759,0.000,3.149,0.000,0.000,34.511
3354,4.194,0.000,0.759,0.000,3.149,0.000,0.000,34.510
3367,4.194,0.000,0.759,0.000,3.149,0.000,0.000,34.534
3380,4.194,0.000,0.759,0.000,3.149,0.000,0.000,34.519
3393,4.194,0.000,0.759,0.000,3.149,0.000,0.000,34.471
3406,4.194,0.000,0.759,0.000,3.149,0.000,0.000,34.492
3419,4.193,0.000,0.759,0.000,3.149,0.000,0.000,34.540
3432,4.193,0.000,0.759,0.000,3.149,0.000,0.000,34.516
3445,4.193,0.000,0.759,0.000,3.149,0.000,0.000,34.497
3458,4.193,0.000,0.759,0.000,3.149,0.000,0.000,34.503
3471,4.193,0.000,0.759,0.000,3.149,0.000,0.000,34.466
3484,4.193,0.000,0.759,0.000,3.149,0.000,0.000,34.500
3497,4.193,0.000,0.759,0.000,3.149,0.000,0.000,34.520
3510,4.192,0.000,0.759,0.000,3.149,0.000,0.000,34.451
3523,4.192,0.000,0.759,0.000,3.149,0.000,0.000,34.514
3536,4.192,0.000,0.759,0.000,3.149,0.000,0.000,34.500
3549,4.192,0.000,0.759,0.000,3.149,0.000,0.000,34.544
3562,4.192,0.000,0.759,0.000,3.149,0.000,0.000,34.539
3575,4.192,0.000,0.759,0.000,3.149,0.000,0.000,34.467
3588,4.192,0.000,0.759,0.000,3.149,0.000,0.000,34.495
3601,4.192,0.000,0.759,0.000,3.149,0.000,0.000,34.495
3614,4.192,0.000,0.759,0.000,3.149,0.000,0.000,34.478
3627,4.192,0.000,0.759,0.000,3.149,0.000,0.000,34.495
3640,4.192,0.000,0.759,0.000,3.149,0.000,0.000,34.511
3653,4.192,0.000,0.759,0.000,3.149,0.000,0.000,34.509
3666,4.191,0.000,0.759,0.000,3.149,0.000,0.000,34.510
3679,4.191,0.000,0.759,0.000,3.149,0.000,0.000,34.507
3692,4.191,0.000,0.759,0.000,3.149,0.000,0.000,34.497
3705,4.191,0.000,0.759,0.000,3.149,0.000,0.000,34.472
3718,4.191,0.000,0.759,0.000,3.149,0.000,0.000,34.474
3731,4.191,0.000,0.759,0.000,3.149,0.000,0.000,34.499
3744,4.191,0.000,0.759,0.000,3.149,0.000,0.000,34.473
3757,4.191,0.000,0.759,0.000,3.149,0.000,0.000,34.486
3770,4.191,0.000,0.759,0.000,3.149,0.000,0.000,34.515
3783,4.191,0.000,0.759,0.000,3.149,0.000,0.000,34.489
3796,4.191,0.000,0.759,0.000,3.149,0.000,0.000,34.493
3809,4.191,0.000,0.759,0.000,3.149,0.000,0.000,34.492
3822,4.191,0.000,0.759,0.000,3.149,0.000,0.000,34.534
3835,4.191,0.000,0.759,0.000,3.149,0.000,0.000,34.467
3848,4.191,0.000,0.759,0.000,3.149,0.000,0.000,34.527
3861,4.191,0.000,0.759,0.000,3.149,0.000,0.000,34.499
3874,4.191,0.000,0.759,0.000,3.149,0.000,0.000,34.444
3887,4.190,0.000,0.759,0.000,3.149,0.000,0.000,34.513
3900,4.190,0.000,0.759,0.000,3.149,0.000,0.000,34.466
3913,4.190,0.000,0.759,0.000,3.149,0.000,0.000,34.458
3926,4.190,0.000,0.759,0.000,3.149,0.000,0.000,34.438
3939,4.190,0.000,0.759,0.000,3.149,0.000,0.000,34.428
3952,4.190,0.000,0.759,0.000,3.149,0.000,0.000,34.463
3965,4.190,0.000,0.759,0.000,3.149,0.000,0.000,34.449
3978,4.190,0.000,0.759,0.000,3.149,0.000,0.000,34.473
3991,4.190,0.000,0.759,0.000,3.149,0.000,0.000,34.427
4004,4.190,0.000,0.759,0.000,3.149,0.000,0.000,34.451
4017,4.190,0.000,0.759,0.000,3.149,0.000,0.000,34.475
4030,4.190,0.000,0.759,0.000,3.149,0.000,0.000,34.463
4043,4.190,0.000,0.759,0.000,3.149,0.000,0.000,34.466
4056,4.190,0.000,0.759,0.000,3.149,0.000,0.000,34.471
4069,4.190,0.000,0.759,0.000,3.149,0.000,0.000,34.422
4082,4.190,0.000,0.759,0.000,3.149,0.000,0.000,34.472
4095,4.190,0.000,0.759,0.000,3.149,0.000,0.000,34.466
4108,4.190,0.000,0.759,0.000,3.149,0.000,0.000,34.480
4121,4.190,0.000,0.759,0.000,3.149,0.000,0.000,34.490
4134,4.190,0.000,0.759,0.000,3.149,0.000,0.000,34.461
4147,4.190,0.000,0.759,0.000,3.149,0.000,0.000,34.459
4160,4.190,0.000,0.759,0.000,3.149,0.000,0.000,34.445
4173,4.189,0.000,0.759,0.000,3.149,0.000,0.000,34.449
4186,4.190,0.000,0.759,0.000,3.149,0.000,0.000,34.469
4199,4.189,0.000,0.759,0.000,3.149,0.000,0.000,34.479
4212,4.190,0.000,0.759,0.000,3.149,0.000,0.000,34.470
4225,4.189,0.000,0.759,0.000,3.149,0.000,0.000,34.509
4238,4.189,0.000,0.759,0.000,3.149,0.000,0.000,34.477
4251,4.189,0.000,0.759,0.000,3.149,0.000,0.000,34.446
4264,4.189,0.000,0.759,0.000,3.149,0.000,0.000,34.466
4277,4.189,0.000,0.759,0.000,3.149,0.000,0.000,34.441
4290,4.189,0.000,0.759,0.000,3.149,0.000,0.000,34.451
4303,4.189,0.000,0.759,0.000,3.149,0.000,0.000,34.455
4316,4.189,0.000,0.759,0.000,3.149,0.000,0.000,34.487
4329,4.189,0.000,0.759,0.000,3.149,0.000,0.000,34.445
4342,4.189,0.000,0.759,0.000,3.149,0.000,0.000,34.437
4355,4.189,0.000,0.759,0.000,3.149,0.000,0.000,34.495
4368,4.189,0.000,0.759,0.000,3.149,0.000,0.000,34.466
4381,4.189,0.000,0.759,0.000,3.149,0.000,0.000,34.479
4394,4.189,0.000,0.759,0.000,3.149,0.000,0.000,34.431
4407,4.189,0.000,0.759,0.000,3.149,0.000,0.000,34.434
4420,4.189,0.000,0.759,0.000,3.149,0.000,0.000,34.476
4433,4.189,0.000,0.759,0.000,3.149,0.000,0.000,34.490
4446,4.189,0.000,0.759,0.000,3.149,0.000,0.000,34.425
4459,4.189,0.000,0.759,0.000,3.149,0.000,0.000,34.441
4472,4.189,0.000,0.759,0.000,3.149,0.000,0.000,34.443
4485,4.189,0.000,0.759,0.000,3.149,0.000,0.000,34.451
4498,4.189,0.000,0.759,0.000,3.149,0.000,0.000,34.452
4511,4.189,0.000,0.759,0.000,3.149,0.000,0.000,34.453
4524,4.189,0.000,0.759,0.000,3.149,0.000,0.000,34.448
4537,4.189,0.000,0.759,0.000,3.149,0.000,0.000,34.426
4550,4.189,0.000,0.759,0.000,3.149,0.000,0.000,34.429
4563,4.189,0.000,0.759,0.000,3.149,0.000,0.000,34.458
4576,4.189,0.000,0.759,0.000,3.149,0.000,0.000,34.430
4589,4.189,0.000,0.759,0.000,3.149,0.000,0.000,34.424
4602,4.189,0.000,0.759,0.000,3.149,0.000,0.000,34.407
4615,4.189,0.000,0.759,0.000,3.149,0.000,0.000,34.398
4628,4.189,0.000,0.759,0.000,3.149,0.000,0.000,34.442
4641,4.188,0.000,0.759,0.000,3.149,0.000,0.000,34.439
4654,4.189,0.000,0.759,0.000,3.149,0.000,0.000,34.417
4667,4.189,0.000,0.759,0.000,3.149,0.000,0.000,34.427
4680,4.188,0.000,0.759,0.000,3.149,0.000,0.000,34.452
4693,4.188,0.000,0.759,0.000,3.149,0.000,0.000,34.453
4706,4.188,0.000,0.759,0.000,3.149,0.000,0.000,34.431
4719,4.188,0.000,0.759,0.000,3.149,0.000,0.000,34.409
4732,4.188,0.000,0.759,0.000,3.149,0.000,0.000,34.471
4745,4.188,0.000,0.759,0.000,3.149,0.000,0.000,34.461
4758,4.188,0.000,0.759,0.000,3.149,0.000,0.000,34.454
4771,4.188,0.000,0.759,0.000,3.149,0.000,0.000,34.479
4784,4.188,0.000,0.759,0.000,3.149,0.000,0.000,34.475
4797,4.188,0.000,0.759,0.000,3.149,0.000,0.000,34.465
4810,4.188,0.000,0.759,0.000,3.149,0.000,0.000,34.427
4823,4.188,0.000,0.759,0.000,3.149,0.000,0.000,34.496
4836,4.188,0.000,0.759,0.000,3.149,0.000,0.000,34.458
4849,4.188,0.000,0.759,0.000,3.149,0.000,0.000,34.467
4862,4.188,0.000,0.759,0.000,3.149,0.000,0.000,34.457
4875,4.188,0.000,0.759,0.000,3.149,0.000,0.000,34.450
4888,4.188,0.000,0.759,0.000,3.149,0.000,0.000,34.446
4901,4.188,0.000,0.759,0.000,3.149,0.000,0.000,34.470
4914,4.188,0.000,0.759,0.000,3.149,0.000,0.000,34.427
4927,4.188,0.000,0.759,0.000,3.149,0.000,0.000,34.456
4940,4.188,0.000,0.759,0.000,3.149,0.000,0.000,34.424
4953,4.188,0.000,0.759,0.000,3.149,0.000,0.000,34.444
4966,4.188,0.000,0.759,0.000,3.149,0.000,0.000,34.440
4979,4.188,0.000,0.759,0.000,3.149,0.000,0.000,34.463
4992,4.188,0.000,0.759,0.000,3.149,0.000,0.000,34.468
5005,4.188,0.000,0.759,0.000,3.149,0.000,0.000,34.448
5018,4.188,0.000,0.759,0.000,3.149,0.000,0.000,34.453
5031,4.188,0.000,0.759,0.000,3.149,0.000,0.000,34.446
5044,4.188,0.000,0.759,0.000,3.149,0.000,0.000,34.452
5057,4.188,0.000,0.759,0.000,3.149,0.000,0.000,34.447
5070,4.188,0.000,0.759,0.000,3.149,0.000,0.000,34.430
5083,4.188,0.000,0.759,0.000,3.149,0.000,0.000,34.442
5096,4.188,0.000,0.759,0.000,3.149,0.000,0.000,34.454
5109,4.188,0.000,0.759,0.000,3.149,0.000,0.000,34.439
5122,4.188,0.000,0.759,0.000,3.149,0.000,0.000,34.463
5135,4.188,0.000,0.759,0.000,3.149,0.000,0.000,34.451
5148,4.188,0.000,0.759,0.000,3.149,0.000,0.000,34.471
5161,4.188,0.000,0.759,0.000,3.149,0.000,0.000,34.506
5174,4.188,0.000,0.759,0.000,3.149,0.000,0.000,34.450
5187,4.188,0.000,0.759,0.000,3.149,0.000,0.000,34.474
5200,4.188,0.000,0.759,0.000,3.149,0.000,0.000,34.474
5213,4.188,0.000,0.759,0.000,3.149,0.000,0.000,34.460
5226,4.188,0.000,0.759,0.000,3.149,0.000,0.000,34.429
5239,4.188,0.000,0.759,0.000,3.149,0.000,0.000,34.423
5252,4.188,0.000,0.759,0.000,3.149,0.000,0.000,34.441
5265,4.188,0.000,0.759,0.000,3.149,0.000,0.000,34.447
5278,4.188,0.000,0.759,0.000,3.149,0.000,0.000,34.461
5291,4.188,0.000,0.759,0.000,3.149,0.000,0.000,34.477
5304,4.187,0.000,0.759,0.000,3.149,0.000,0.000,34.439
5317,4.187,0.000,0.759,0.000,3.149,0.000,0.000,34.442
5330,4.188,0.000,0.759,0.000,3.149,0.000,0.000,34.435
5343,4.187,0.000,0.759,0.000,3.149,0.000,0.000,34.406
5356,4.187,0.000,0.759,0.000,3.149,0.000,0.000,34.442
5369,4.187,0.000,0.759,0.000,3.149,0.000,0.000,34.425
5382,4.187,0.000,0.759,0.000,3.149,0.000,0.000,34.437
5395,4.187,0.000,0.759,0.000,3.149,0.000,0.000,34.445
5408,4.187,0.000,0.759,0.000,3.149,0.000,0.000,34.466
5421,4.187,0.000,0.759,0.000,3.149,0.000,0.000,34.440
5434,4.187,0.000,0.759,0.000,3.149,0.000,0.000,34.462
5447,4.187,0.000,0.759,0.000,3.149,0.000,0.000,34.446
5460,4.187,0.000,0.759,0.000,3.149,0.000,0.000,34.467
5473,4.187,0.000,0.759,0.000,3.149,0.000,0.000,34.426
5486,4.187,0.000,0.759,0.000,3.149,0.000,0.000,34.458
5499,4.187,0.000,0.759,0.000,3.149,0.000,0.000,34.445
5512,4.187,0.000,0.759,0.000,3.149,0.000,0.000,34.492
5525,4.187,0.000,0.759,0.000,3.149,0.000,0.000,34.457
5538,4.187,0.000,0.759,0.000,3.149,0.000,0.000,34.442
5551,4.187,0.000,0.759,0.000,3.149,0.000,0.000,34.442
5564,4.187,0.000,0.759,0.000,3.149,0.000,0.000,34.438
5577,4.187,0.000,0.759,0.000,3.149,0.000,0.000,34.456
5590,4.187,0.000,0.759,0.000,3.149,0.000,0.000,34.481
5603,4.187,0.000,0.759,0.000,3.149,0.000,0.000,34.462
5616,4.187,0.000,0.759,0.000,3.149,0.000,0.000,34.405
5629,4.187,0.000,0.759,0.000,3.149,0.000,0.000,34.473
5642,4.187,0.000,0.759,0.000,3.149,0.000,0.000,34.426
5655,4.187,0.000,0.759,0.000,3.149,0.000,0.000,34.443
5668,4.187,0.000,0.759,0.000,3.149,0.000,0.000,34.485
5681,4.187,0.000,0.759,0.000,3.149,0.000,0.000,34.458
5694,4.187,0.000,0.759,0.000,3.149,0.000,0.000,34.444
5707,4.187,0.000,0.759,0.000,3.149,0.000,0.000,34.492
5720,4.187,0.000,0.759,0.000,3.149,0.000,0.000,34.471
5733,4.187,0.000,0.759,0.000,3.149,0.000,0.000,34.444
5746,4.187,0.000,0.759,0.000,3.149,0.000,0.000,34.445
5759,4.187,0.000,0.759,0.000,3.149,0.000,0.000,34.484
5772,4.187,0.000,0.759,0.000,3.149,0.000,0.000,34.444
5785,4.187,0.000,0.759,0.000,3.149,0.000,0.000,34.470
5798,4.187,0.000,0.759,0.000,3.149,0.000,0.000,34.445
5811,4.187,0.000,0.759,0.000,3.149,0.000,0.000,34.472
5824,4.187,0.000,0.759,0.000,3.149,0.000,0.000,34.429
5837,4.187,0.000,0.759,0.000,3.149,0.000,0.000,34.459
5850,4.187,0.000,0.759,0.000,3.149,0.000,0.000,34.448
5863,4.187,0.000,0.759,0.000,3.149,0.000,0.000,34.472
5876,4.187,0.000,0.759,0.000,3.149,0.000,0.000,34.477
5889,4.187,0.000,0.759,0.000,3.149,0.000,0.000,34.495
5902,4.187,0.000,0.759,0.000,3.149,0.000,0.000,34.418
5915,4.187,0.000,0.759,0.000,3.149,0.000,0.000,34.451
5928,4.187,0.000,0.759,0.000,3.149,0.000,0.000,34.401
5941,4.187,0.000,0.759,0.000,3.149,0.000,0.000,34.432
5954,4.187,0.000,0.759,0.000,3.149,0.000,0.000,34.427
5967,4.187,0.000,0.759,0.000,3.149,0.000,0.000,34.449
5980,4.187,0.000,0.759,0.000,3.149,0.000,0.000,34.429
5993,4.187,0.000,0.759,0.000,3.149,0.000,0.000,34.421
6006,4.187,0.000,0.759,0.000,3.149,0.000,0.000,34.374
6019,4.187,0.000,0.759,0.000,3.149,0.000,0.000,34.463
6032,4.187,0.000,0.759,0.000,3.149,0.000,0.000,34.470
6045,4.187,0.000,0.759,0.000,3.149,0.000,0.000,34.474
6058,4.187,0.000,0.759,0.000,3.149,0.000,0.000,34.417
6071,4.187,0.000,0.759,0.000,3.149,0.000,0.000,34.453
6084,4.187,0.000,0.759,0.000,3.149,0.000,0.000,34.461
6097,4.187,0.000,0.759,0.000,3.149,0.000,0.000,34.420
6110,4.187,0.000,0.759,0.000,3.149,0.000,0.000,34.444
6123,4.187,0.000,0.759,0.000,3.149,0.000,0.000,34.487
6136,4.187,0.000,0.759,0.000,3.149,0.000,0.000,34.495
6149,4.187,0.000,0.759,0.000,3.149,0.000,0.000,34.458
6162,4.187,0.000,0.759,0.000,3.149,0.000,0.000,34.446
6175,4.186,0.000,0.759,0.000,3.149,0.000,0.000,34.441
6188,4.187,0.000,0.759,0.000,3.149,0.000,0.000,34.420
6201,4.187,0.000,0.759,0.000,3.149,0.000,0.000,34.427
6214,4.186,0.000,0.759,0.000,3.149,0.000,0.000,34.482
6227,4.186,0.000,0.759,0.000,3.149,0.000,0.000,34.440
6240,4.187,0.000,0.759,0.000,3.149,0.000,0.000,34.428
6253,4.187,0.000,0.759,0.000,3.149,0.000,0.000,34.458
6266,4.187,0.000,0.759,0.000,3.149,0.000,0.000,34.444
6279,4.186,0.000,0.759,0.000,3.149,0.000,0.000,34.420
6292,4.187,0.000,0.759,0.000,3.149,0.000,0.000,34.425
6305,4.186,0.000,0.759,0.000,3.149,0.000,0.000,34.407
6318,4.186,0.000,0.759,0.000,3.149,0.000,0.000,34.448
6331,4.186,0.000,0.759,0.000,3.149,0.000,0.000,34.430
6344,4.186,0.000,0.759,0.000,3.149,0.000,0.000,34.486
6357,4.187,0.000,0.759,0.000,3.149,0.000,0.000,34.415
6370,4.187,0.000,0.759,0.000,3.149,0.000,0.000,34.407
6383,4.186,0.000,0.759,0.000,3.149,0.000,0.000,34.381
6396,4.186,0.000,0.759,0.000,3.149,0.000,0.000,34.436
6409,4.186,0.000,0.759,0.000,3.149,0.000,0.000,34.429
6422,4.186,0.000,0.759,0.000,3.149,0.000,0.000,34.433
6435,4.186,0.000,0.759,0.000,3.149,0.000,0.000,34.443
6448,4.186,0.000,0.759,0.000,3.149,0.000,0.000,34.448
6461,4.186,0.000,0.759,0.000,3.149,0.000,0.000,34.422
6474,4.186,0.000,0.759,0.000,3.149,0.000,0.000,34.439
6487,4.186,0.000,0.759,0.000,3.149,0.000,0.000,34.450
6500,4.186,0.000,0.759,0.000,3.149,0.000,0.000,34.435
6513,4.186,0.000,0.759,0.000,3.149,0.000,0.000,34.419
6526,4.186,0.000,0.759,0.000,3.149,0.000,0.000,34.460
6539,4.186,0.000,0.759,0.000,3.149,0.000,0.000,34.482
6552,4.186,0.000,0.759,0.000,3.149,0.000,0.000,34.443
6565,4.186,0.000,0.759,0.000,3.149,0.000,0.000,34.434
6578,4.186,0.000,0.759,0.000,3.149,0.000,0.000,34.433
6591,4.186,0.000,0.759,0.000,3.149,0.000,0.000,34.430
6604,4.186,0.000,0.759,0.000,3.149,0.000,0.000,34.427
6617,4.186,0.000,0.759,0.000,3.149,0.000,0.000,34.450
6630,4.186,0.000,0.759,0.000,3.149,0.000,0.000,34.469
6643,4.186,0.000,0.759,0.000,3.149,0.000,0.000,34.414
6656,4.186,0.000,0.759,0.000,3.149,0.000,0.000,34.464
6669,4.186,0.000,0.759,0.000,3.149,0.000,0.000,34.472
6682,4.186,0.000,0.759,0.000,3.149,0.000,0.000,34.467
6695,4.186,0.000,0.759,0.000,3.149,0.000,0.000,34.455
6708,4.186,0.000,0.759,0.000,3.149,0.000,0.000,34.405
6721,4.186,0.000,0.759,0.000,3.149,0.000,0.000,34.445
6734,4.186,0.000,0.759,0.000,3.149,0.000,0.000,34.437
6747,4.186,0.000,0.759,0.000,3.149,0.000,0.000,34.446
6760,4.186,0.000,0.759,0.000,3.149,0.000,0.000,34.462
6773,4.186,0.000,0.759,0.000,3.149,0.000,0.000,34.427
6786,4.186,0.000,0.759,0.000,3.149,0.000,0.000,34.464
6799,4.186,0.000,0.759,0.000,3.149,0.000,0.000,34.444
6812,4.186,0.000,0.759,0.000,3.149,0.000,0.000,34.446
6825,4.186,0.000,0.759,0.000,3.149,0.000,0.000,34.415
6838,4.186,0.000,0.759,0.000,3.149,0.000,0.000,34.425
6851,4.186,0.000,0.759,0.000,3.149,0.000,0.000,34.416
6864,4.186,0.000,0.759,0.000,3.149,0.000,0.000,34.411
6877,4.186,0.000,0.759,0.000,3.149,0.000,0.000,34.396
6889,3.578,-10.048,0.759,0.017,3.149,0.060,-0.007,34.548
6902,3.526,-10.049,0.759,0.053,3.149,0.189,-0.003,35.193
6915,3.501,-10.047,0.759,0.089,3.149,0.317,-0.002,35.890
6928,3.483,-10.049,0.759,0.126,3.149,0.443,-0.001,36.809
6941,3.469,-10.049,0.759,0.162,3.149,0.569,-0.001,37.459
6954,3.455,-10.048,0.759,0.198,3.149,0.695,-0.001,38.376
6967,3.442,-10.049,0.759,0.234,3.149,0.820,-0.001,39.087
6980,3.429,-10.048,0.759,0.271,3.149,0.945,-0.001,39.849
6993,3.416,-10.048,0.759,0.307,3.149,1.069,-0.001,40.613
7006,3.403,-10.048,0.759,0.343,3.149,1.193,-0.001,41.250
7019,3.389,-10.048,0.759,0.380,3.149,1.316,-0.001,41.959
7032,3.375,-10.048,0.759,0.416,3.149,1.439,-0.001,42.481
7045,3.361,-10.049,0.759,0.452,3.149,1.561,-0.001,43.127
7058,3.347,-10.048,0.759,0.488,3.149,1.683,-0.001,43.794
7071,3.333,-10.048,0.759,0.525,3.149,1.804,-0.001,44.236
7084,3.319,-10.048,0.759,0.561,3.149,1.924,-0.001,44.745
7097,3.305,-10.048,0.759,0.597,3.149,2.045,-0.001,45.242
7110,3.290,-10.048,0.759,0.634,3.149,2.164,-0.001,45.704
7123,3.276,-10.048,0.759,0.670,3.149,2.283,-0.001,46.121
7136,3.263,-10.048,0.759,0.706,3.149,2.402,-0.001,46.571
7149,3.249,-10.048,0.759,0.742,3.149,2.520,-0.001,47.116
7162,3.235,-10.048,0.759,0.779,3.149,2.638,-0.001,47.431
7175,3.221,-10.048,0.759,0.815,3.149,2.755,-0.001,47.913
7188,3.207,-10.048,0.759,0.851,3.149,2.872,-0.001,48.225
7201,3.193,-10.048,0.759,0.888,3.149,2.988,-0.001,48.585
7214,3.180,-10.048,0.759,0.924,3.149,3.103,-0.001,48.963
7227,3.166,-10.048,0.759,0.960,3.149,3.218,-0.001,49.269
7240,3.152,-10.049,0.759,0.996,3.149,3.333,-0.001,49.694
7253,3.139,-10.048,0.759,1.033,3.149,3.447,-0.001,49.978
7266,3.125,-10.049,0.759,1.069,3.149,3.561,-0.001,50.433
7279,3.112,-10.049,0.759,1.105,3.149,3.674,-0.001,50.780
7292,3.099,-10.049,0.759,1.142,3.149,3.787,-0.001,51.151
7305,3.086,-10.049,0.759,1.178,3.149,3.899,-0.001,51.333
7318,3.074,-10.049,0.759,1.214,3.149,4.011,-0.001,51.724
7331,3.061,-10.049,0.759,1.250,3.149,4.122,-0.001,52.046
7344,3.049,-10.049,0.759,1.287,3.149,4.233,-0.001,52.401
7357,3.037,-10.049,0.759,1.323,3.149,4.343,-0.001,52.526
7370,3.026,-10.050,0.759,1.359,3.149,4.453,-0.001,52.855
7383,3.014,-10.049,0.759,1.396,3.149,4.563,-0.001,53.237
7396,3.003,-10.049,0.759,1.432,3.149,4.672,-0.001,53.476
7409,2.991,-10.050,0.759,1.468,3.149,4.781,-0.001,53.768
7422,2.980,-10.049,0.759,1.504,3.149,4.889,-0.001,54.035
7435,2.968,-10.050,0.759,1.541,3.149,4.997,-0.001,54.233
7448,2.957,-10.050,0.759,1.577,3.149,5.105,-0.001,54.594
7461,2.946,-10.050,0.759,1.613,3.149,5.212,-0.001,54.845
7474,2.935,-10.050,0.759,1.650,3.149,5.318,-0.001,55.142
7487,2.924,-10.050,0.759,1.686,3.149,5.425,-0.001,55.355
7500,2.913,-10.050,0.759,1.722,3.149,5.531,-0.001,55.541
7513,2.902,-10.050,0.759,1.759,3.149,5.636,-0.001,55.753
7526,2.892,-10.050,0.759,1.795,3.149,5.741,-0.001,56.105
7539,2.881,-10.050,0.759,1.831,3.149,5.846,-0.001,56.316
7552,2.870,-10.050,0.759,1.867,3.149,5.951,-0.001,56.477
7565,2.859,-10.050,0.759,1.904,3.149,6.054,-0.001,57.029
7578,2.848,-10.050,0.759,1.940,3.149,6.158,-0.001,57.172
7591,2.837,-10.050,0.759,1.976,3.149,6.261,-0.001,57.359
7604,2.826,-10.051,0.759,2.013,3.149,6.364,-0.001,57.646
7617,2.815,-10.050,0.759,2.049,3.149,6.466,-0.001,57.961
7630,2.804,-10.051,0.759,2.085,3.149,6.568,-0.001,58.180
7643,2.792,-10.050,0.759,2.121,3.149,6.670,-0.001,58.381
7656,2.781,-10.050,0.759,2.158,3.149,6.771,-0.001,58.571
7669,2.770,-10.051,0.759,2.194,3.149,6.872,-0.001,58.800
7682,2.758,-10.051,0.759,2.230,3.149,6.972,-0.001,58.960
7695,2.746,-10.051,0.759,2.267,3.149,7.072,-0.001,59.213
7708,2.735,-10.051,0.759,2.303,3.149,7.171,-0.001,59.381
7721,2.724,-10.051,0.759,2.339,3.149,7.270,-0.001,59.609
7734,2.712,-10.051,0.759,2.375,3.149,7.369,-0.001,59.991
7747,2.700,-10.051,0.759,2.412,3.149,7.467,-0.001,60.255
7760,2.688,-10.051,0.759,2.448,3.149,7.565,-0.001,60.522
7773,2.676,-10.051,0.759,2.484,3.149,7.662,-0.001,60.655
7786,2.664,-10.052,0.759,2.521,3.149,7.759,-0.001,60.732
7799,2.652,-10.051,0.759,2.557,3.149,7.856,-0.001,61.000
7812,2.640,-10.052,0.759,2.593,3.149,7.952,-0.001,61.421
7825,2.628,-10.051,0.759,2.630,3.149,8.047,-0.001,61.594
7838,2.615,-10.051,0.759,2.666,3.149,8.143,-0.001,61.789
7851,2.602,-10.052,0.759,2.702,3.149,8.237,-0.001,62.160
7864,2.589,-10.051,0.759,2.738,3.149,8.331,-0.001,62.452
7877,2.575,-10.052,0.759,2.775,3.149,8.425,-0.001,62.595
7890,2.560,-10.052,0.759,2.811,3.149,8.518,-0.001,62.682
7903,2.544,-10.052,0.759,2.847,3.149,8.611,-0.001,63.082
7916,2.527,-10.052,0.759,2.884,3.149,8.703,-0.001,63.457
7929,2.508,-10.053,0.759,2.920,3.149,8.794,-0.002,63.484
7942,3.213,0.000,0.759,2.933,3.149,8.827,0.009,63.578
7955,3.281,0.000,0.759,2.933,3.149,8.827,0.004,63.170
7968,3.314,0.000,0.759,2.933,3.149,8.827,0.002,62.295
7981,3.332,0.000,0.759,2.933,3.149,8.827,0.001,61.503
7994,3.341,0.000,0.759,2.933,3.149,8.827,0.001,60.454
8007,3.346,0.000,0.759,2.933,3.149,8.827,0.000,59.393
8020,3.349,0.000,0.759,2.933,3.149,8.827,0.000,58.688
8033,3.351,0.000,0.759,2.933,3.149,8.827,0.000,57.837
8046,3.352,0.000,0.759,2.933,3.149,8.827,0.000,57.048
8059,3.353,0.000,0.759,2.933,3.149,8.827,0.000,55.948
8072,3.353,0.000,0.759,2.933,3.149,8.827,0.000,55.114
8085,3.353,0.000,0.759,2.933,3.149,8.827,0.000,54.396
8098,3.354,0.000,0.759,2.933,3.149,8.827,0.000,53.475
8111,3.354,0.000,0.759,2.933,3.149,8.827,0.000,52.815
8124,3.354,0.000,0.759,2.933,3.149,8.827,0.000,51.931
8137,3.354,0.000,0.759,2.933,3.149,8.827,0.000,51.465
8150,3.354,0.000,0.759,2.933,3.149,8.827,0.000,50.782
8163,3.355,0.000,0.759,2.933,3.149,8.827,0.000,50.044
8176,3.355,0.000,0.759,2.933,3.149,8.827,0.000,49.482
8189,3.355,0.000,0.759,2.933,3.149,8.827,0.000,48.945
8202,3.355,0.000,0.759,2.933,3.149,8.827,0.000,48.452
8215,3.355,0.000,0.759,2.933,3.149,8.827,0.000,47.862
8228,3.355,0.000,0.759,2.933,3.149,8.827,0.000,47.429
8241,3.355,0.000,0.759,2.933,3.149,8.827,0.000,46.900
8254,3.356,0.000,0.759,2.933,3.149,8.827,0.000,46.419
8267,3.356,0.000,0.759,2.933,3.149,8.827,0.000,46.011
8280,3.356,0.000,0.759,2.933,3.149,8.827,0.000,45.588
8293,3.356,0.000,0.759,2.933,3.149,8.827,0.000,45.213
8306,3.356,0.000,0.759,2.933,3.149,8.827,0.000,44.807
8319,3.356,0.000,0.759,2.933,3.149,8.827,0.000,44.427
8332,3.356,0.000,0.759,2.933,3.149,8.827,0.000,44.101
8345,3.356,0.000,0.759,2.933,3.149,8.827,0.000,43.740
8358,3.356,0.000,0.759,2.933,3.149,8.827,0.000,43.448
8371,3.356,0.000,0.759,2.933,3.149,8.827,0.000,43.059
8384,3.356,0.000,0.759,2.933,3.149,8.827,0.000,42.681
8397,3.356,0.000,0.759,2.933,3.149,8.827,0.000,42.462
8410,3.356,0.000,0.759,2.933,3.149,8.827,0.000,42.201
8423,3.356,0.000,0.759,2.933,3.149,8.827,0.000,41.955
8436,3.356,0.000,0.759,2.933,3.149,8.827,0.000,41.622
8449,3.357,0.000,0.759,2.933,3.149,8.827,0.000,41.393
8462,3.357,0.000,0.759,2.933,3.149,8.827,0.000,41.086
8475,3.357,0.000,0.759,2.933,3.149,8.827,0.000,40.951
8488,3.357,0.000,0.759,2.933,3.149,8.827,0.000,40.702
8501,3.357,0.000,0.759,2.933,3.149,8.827,0.000,40.459
8514,3.357,0.000,0.759,2.933,3.149,8.827,0.000,40.314
8527,3.357,0.000,0.759,2.933,3.149,8.827,0.000,40.064
8540,3.357,0.000,0.759,2.933,3.149,8.827,0.000,39.880
8553,3.357,0.000,0.759,2.933,3.149,8.827,0.000,39.713
8566,3.357,0.000,0.759,2.933,3.149,8.827,0.000,39.554
8579,3.357,0.000,0.759,2.933,3.149,8.827,0.000,39.348
8592,3.357,0.000,0.759,2.933,3.149,8.827,0.000,39.163
8605,3.357,0.000,0.759,2.933,3.149,8.827,0.000,38.995
8618,3.357,0.000,0.759,2.933,3.149,8.827,0.000,38.837
8631,3.357,0.000,0.759,2.933,3.149,8.827,0.000,38.740
8644,3.357,0.000,0.759,2.933,3.149,8.827,0.000,38.574
8657,3.357,0.000,0.759,2.933,3.149,8.827,0.000,38.482
8670,3.357,0.000,0.759,2.933,3.149,8.827,0.000,38.342
8683,3.357,0.000,0.759,2.933,3.149,8.827,0.000,38.184
8696,3.357,0.000,0.759,2.933,3.149,8.827,0.000,38.037
8709,3.357,0.000,0.759,2.933,3.149,8.827,0.000,37.929
8722,3.357,0.000,0.759,2.933,3.149,8.827,0.000,37.850
8735,3.357,0.000,0.759,2.933,3.149,8.827,0.000,37.727
8748,3.357,0.000,0.759,2.933,3.149,8.827,0.000,37.656
8761,3.357,0.000,0.759,2.933,3.149,8.827,0.000,37.555
8774,3.357,0.000,0.759,2.933,3.149,8.827,0.000,37.406
8787,3.357,0.000,0.759,2.933,3.149,8.827,0.000,37.363
8800,3.357,0.000,0.759,2.933,3.149,8.827,0.000,37.245
8813,3.357,0.000,0.759,2.933,3.149,8.827,0.000,37.140
8826,3.357,0.000,0.759,2.933,3.149,8.827,0.000,37.098
8839,3.356,0.000,0.759,2.933,3.149,8.827,0.000,36.928
8852,3.357,0.000,0.759,2.933,3.149,8.827,0.000,36.875
8865,3.356,0.000,0.759,2.933,3.149,8.827,0.000,36.810
8878,3.356,0.000,0.759,2.933,3.149,8.827,0.000,36.734
8891,3.356,0.000,0.759,2.933,3.149,8.827,0.000,36.670
8904,3.356,0.000,0.759,2.933,3.149,8.827,0.000,36.610
8917,3.356,0.000,0.759,2.933,3.149,8.827,0.000,36.488
8930,3.356,0.000,0.759,2.933,3.149,8.827,0.000,36.465
8943,3.356,0.000,0.759,2.933,3.149,8.827,0.000,36.405
8956,3.356,0.000,0.759,2.933,3.149,8.827,0.000,36.350
8969,3.356,0.000,0.759,2.933,3.149,8.827,0.000,36.288
8982,3.356,0.000,0.759,2.933,3.149,8.827,0.000,36.230
8995,3.356,0.000,0.759,2.933,3.149,8.827,0.000,36.186
9008,3.356,0.000,0.759,2.933,3.149,8.827,0.000,36.134
9021,3.356,0.000,0.759,2.933,3.149,8.827,0.000,36.096
9034,3.356,0.000,0.759,2.933,3.149,8.827,0.000,36.050
9047,3.356,0.000,0.759,2.933,3.149,8.827,0.000,35.996
9060,3.356,0.000,0.759,2.933,3.149,8.827,0.000,35.934
9073,3.356,0.000,0.759,2.933,3.149,8.827,0.000,35.854
9086,3.356,0.000,0.759,2.933,3.149,8.827,0.000,35.820
9099,3.356,0.000,0.759,2.933,3.149,8.827,0.000,35.755
9112,3.356,0.000,0.759,2.933,3.149,8.827,0.000,35.722
9125,3.356,0.000,0.759,2.933,3.149,8.827,0.000,35.724
9138,3.356,0.000,0.759,2.933,3.149,8.827,0.000,35.676
9151,3.356,0.000,0.759,2.933,3.149,8.827,0.000,35.667
9164,3.356,0.000,0.759,2.933,3.149,8.827,0.000,35.614
9177,3.356,0.000,0.759,2.933,3.149,8.827,0.000,35.555
9190,3.356,0.000,0.759,2.933,3.149,8.827,0.000,35.524
9203,3.356,0.000,0.759,2.933,3.149,8.827,0.000,35.455
9216,3.356,0.000,0.759,2.933,3.149,8.827,0.000,35.440
9229,3.356,0.000,0.759,2.933,3.149,8.827,0.000,35.456
9242,3.356,0.000,0.759,2.933,3.149,8.827,0.000,35.456
9255,3.356,0.000,0.759,2.933,3.149,8.827,0.000,35.374
9268,3.356,0.000,0.759,2.933,3.149,8.827,0.000,35.322
9281,3.356,0.000,0.759,2.933,3.149,8.827,0.000,35.306
9294,3.356,0.000,0.759,2.933,3.149,8.827,0.000,35.284
9307,3.356,0.000,0.759,2.933,3.149,8.827,0.000,35.288
9320,3.356,0.000,0.759,2.933,3.149,8.827,0.000,35.237
9333,3.356,0.000,0.759,2.933,3.149,8.827,0.000,35.197
9346,3.356,0.000,0.759,2.933,3.149,8.827,0.000,35.193
9359,3.356,0.000,0.759,2.933,3.149,8.827,0.000,35.180
9372,3.356,0.000,0.759,2.933,3.149,8.827,0.000,35.117
9385,3.356,0.000,0.759,2.933,3.149,8.827,0.000,35.118
9398,3.355,0.000,0.759,2.933,3.149,8.827,0.000,35.121
9411,3.355,0.000,0.759,2.933,3.149,8.827,0.000,35.096
9424,3.355,0.000,0.759,2.933,3.149,8.827,0.000,35.113
9437,3.355,0.000,0.759,2.933,3.149,8.827,0.000,35.046
9450,3.355,0.000,0.759,2.933,3.149,8.827,0.000,35.060
9463,3.355,0.000,0.759,2.933,3.149,8.827,0.000,35.061
9476,3.355,0.000,0.759,2.933,3.149,8.827,0.000,35.033
9489,3.355,0.000,0.759,2.933,3.149,8.827,0.000,34.988
9502,3.355,0.000,0.759,2.933,3.149,8.827,0.000,35.013
9515,3.355,0.000,0.759,2.933,3.149,8.827,0.000,34.952
9528,3.355,0.000,0.759,2.933,3.149,8.827,0.000,34.934
9541,3.355,0.000,0.759,2.933,3.149,8.827,0.000,34.937
9554,3.355,0.000,0.759,2.933,3.149,8.827,0.000,34.931
9567,3.355,0.000,0.759,2.933,3.149,8.827,0.000,34.965
9580,3.355,0.000,0.759,2.933,3.149,8.827,0.000,34.900
9593,3.355,0.000,0.759,2.933,3.149,8.827,0.000,34.878
9606,3.355,0.000,0.759,2.933,3.149,8.827,0.000,34.887
9619,3.355,0.000,0.759,2.933,3.149,8.827,0.000,34.869
9632,3.355,0.000,0.759,2.933,3.149,8.827,0.000,34.887
9645,3.355,0.000,0.759,2.933,3.149,8.827,0.000,34.831
9658,3.355,0.000,0.759,2.933,3.149,8.827,0.000,34.835
9671,3.355,0.000,0.759,2.933,3.149,8.827,0.000,34.857
9684,3.355,0.000,0.759,2.933,3.149,8.827,0.000,34.809
9697,3.355,0.000,0.759,2.933,3.149,8.827,0.000,34.869
9710,3.355,0.000,0.759,2.933,3.149,8.827,0.000,34.838
9723,3.355,0.000,0.759,2.933,3.149,8.827,0.000,34.807
9736,3.355,0.000,0.759,2.933,3.149,8.827,0.000,34.781
9749,3.355,0.000,0.759,2.933,3.149,8.827,0.000,34.796
9762,3.355,0.000,0.759,2.933,3.149,8.827,0.000,34.783
9775,3.355,0.000,0.759,2.933,3.149,8.827,0.000,34.737
9788,3.355,0.000,0.759,2.933,3.149,8.827,0.000,34.715
9801,3.355,0.000,0.759,2.933,3.149,8.827,0.000,34.717
9814,3.355,0.000,0.759,2.933,3.149,8.827,0.000,34.709
9827,3.355,0.000,0.759,2.933,3.149,8.827,0.000,34.728
9840,3.355,0.000,0.759,2.933,3.149,8.827,0.000,34.735
9853,3.355,0.000,0.759,2.933,3.149,8.827,0.000,34.715
9866,3.355,0.000,0.759,2.933,3.149,8.827,0.000,34.699
9879,3.355,0.000,0.759,2.933,3.149,8.827,0.000,34.707
9892,3.355,0.000,0.759,2.933,3.149,8.827,0.000,34.714
9905,3.355,0.000,0.759,2.933,3.149,8.827,0.000,34.692
9918,3.355,0.000,0.759,2.933,3.149,8.827,0.000,34.705
9931,3.355,0.000,0.759,2.933,3.149,8.827,0.000,34.661
9944,3.355,0.000,0.759,2.933,3.149,8.827,0.000,34.680
9957,3.355,0.000,0.759,2.933,3.149,8.827,0.000,34.661
9970,3.355,0.000,0.759,2.933,3.149,8.827,0.000,34.683
9983,3.355,0.000,0.759,2.933,3.149,8.827,0.000,34.677
9996,3.355,0.000,0.759,2.933,3.149,8.827,0.000,34.654
10009,3.355,0.000,0.759,2.933,3.149,8.827,0.000,34.642
10022,3.355,0.000,0.759,2.933,3.149,8.827,0.000,34.670
10035,3.355,0.000,0.759,2.933,3.149,8.827,0.000,34.643
10048,3.355,0.000,0.759,2.933,3.149,8.827,0.000,34.618
10061,3.355,0.000,0.759,2.933,3.149,8.827,0.000,34.698
10074,3.355,0.000,0.759,2.933,3.149,8.827,0.000,34.652
10087,3.355,0.000,0.759,2.933,3.149,8.827,0.000,34.616
10100,3.355,0.000,0.759,2.933,3.149,8.827,0.000,34.631
10113,3.355,0.000,0.759,2.933,3.149,8.827,0.000,34.627
10126,3.355,0.000,0.759,2.933,3.149,8.827,0.000,34.616
10139,3.355,0.000,0.759,2.933,3.149,8.827,0.000,34.592
10152,3.355,0.000,0.759,2.933,3.149,8.827,0.000,34.601
10165,3.355,0.000,0.759,2.933,3.149,8.827,0.000,34.626
10178,3.355,0.000,0.759,2.933,3.149,8.827,0.000,34.611
10191,3.355,0.000,0.759,2.933,3.149,8.827,0.000,34.591
10204,3.355,0.000,0.759,2.933,3.149,8.827,0.000,34.578
10217,3.355,0.000,0.759,2.933,3.149,8.827,0.000,34.585
10230,3.355,0.000,0.759,2.933,3.149,8.827,0.000,34.610
10243,3.355,0.000,0.759,2.933,3.149,8.827,0.000,34.568
10256,3.355,0.000,0.759,2.933,3.149,8.827,0.000,34.559
10269,3.355,0.000,0.759,2.933,3.149,8.827,0.000,34.587
10282,3.355,0.000,0.759,2.933,3.149,8.827,0.000,34.573
10295,3.355,0.000,0.759,2.933,3.149,8.827,0.000,34.566
10308,3.355,0.000,0.759,2.933,3.149,8.827,0.000,34.549
10321,3.355,0.000,0.759,2.933,3.149,8.827,0.000,34.574
10334,3.355,0.000,0.759,2.933,3.149,8.827,0.000,34.597
10347,3.355,0.000,0.759,2.933,3.149,8.827,0.000,34.590
10360,3.355,0.000,0.759,2.933,3.149,8.827,0.000,34.577
10373,3.355,0.000,0.759,2.933,3.149,8.827,0.000,34.540
10386,3.354,0.000,0.759,2.933,3.149,8.827,0.000,34.568
10399,3.355,0.000,0.759,2.933,3.149,8.827,0.000,34.538
10412,3.355,0.000,0.759,2.933,3.149,8.827,0.000,34.545
10425,3.355,0.000,0.759,2.933,3.149,8.827,0.000,34.539
10438,3.354,0.000,0.759,2.933,3.149,8.827,0.000,34.522
10451,3.354,0.000,0.759,2.933,3.149,8.827,0.000,34.579
10464,3.355,0.000,0.759,2.933,3.149,8.827,0.000,34.563
10477,3.355,0.000,0.759,2.933,3.149,8.827,0.000,34.560
10490,3.355,0.000,0.759,2.933,3.149,8.827,0.000,34.568
10503,3.355,0.000,0.759,2.933,3.149,8.827,0.000,34.543
10516,3.355,0.000,0.759,2.933,3.149,8.827,0.000,34.542
10529,3.355,0.000,0.759,2.933,3.149,8.827,0.000,34.569
10542,3.354,0.000,0.759,2.933,3.149,8.827,0.000,34.542
10555,3.354,0.000,0.759,2.933,3.149,8.827,0.000,34.483
10568,3.354,0.000,0.759,2.933,3.149,8.827,0.000,34.538
10581,3.354,0.000,0.759,2.933,3.149,8.827,0.000,34.515
10594,3.354,0.000,0.759,2.933,3.149,8.827,0.000,34.537
10607,3.355,0.000,0.759,2.933,3.149,8.827,0.000,34.497
10620,3.355,0.000,0.759,2.933,3.149,8.827,0.000,34.532
10633,3.355,0.000,0.759,2.933,3.149,8.827,0.000,34.556
10646,3.354,0.000,0.759,2.933,3.149,8.827,0.000,34.580
10659,3.354,0.000,0.759,2.933,3.149,8.827,0.000,34.528
10672,3.354,0.000,0.759,2.933,3.149,8.827,0.000,34.550
10685,3.354,0.000,0.759,2.933,3.149,8.827,0.000,34.529
10698,3.355,0.000,0.759,2.933,3.149,8.827,0.000,34.546
10711,3.355,0.000,0.759,2.933,3.149,8.827,0.000,34.559
10724,3.354,0.000,0.759,2.933,3.149,8.827,0.000,34.491
10737,3.355,0.000,0.759,2.933,3.149,8.827,0.000,34.503
10750,3.355,0.000,0.759,2.933,3.149,8.827,0.000,34.547
10763,3.354,0.000,0.759,2.933,3.149,8.827,0.000,34.535
10776,3.354,0.000,0.759,2.933,3.149,8.827,0.000,34.480
10789,3.355,0.000,0.759,2.933,3.149,8.827,0.000,34.515
10802,3.354,0.000,0.759,2.933,3.149,8.827,0.000,34.553
10815,3.355,0.000,0.759,2.933,3.149,8.827,0.000,34.495
10828,3.354,0.000,0.759,2.933,3.149,8.827,0.000,34.528
10841,3.354,0.000,0.759,2.933,3.149,8.827,0.000,34.540
10854,3.354,0.000,0.759,2.933,3.149,8.827,0.000,34.521
10867,3.354,0.000,0.759,2.933,3.149,8.827,0.000,34.502
10880,3.354,0.000,0.759,2.933,3.149,8.827,0.000,34.521
10893,3.354,0.000,0.759,2.933,3.149,8.827,0.000,34.553
10906,3.354,0.000,0.759,2.933,3.149,8.827,0.000,34.501
10919,3.354,0.000,0.759,2.933,3.149,8.827,0.000,34.543
10932,3.354,0.000,0.759,2.933,3.149,8.827,0.000,34.530
10945,3.354,0.000,0.759,2.933,3.149,8.827,0.000,34.492
10958,3.354,0.000,0.759,2.933,3.149,8.827,0.000,34.493
10971,3.354,0.000,0.759,2.933,3.149,8.827,0.000,34.525
10984,3.354,0.000,0.759,2.933,3.149,8.827,0.000,34.542
10997,3.354,0.000,0.759,2.933,3.149,8.827,0.000,34.493
11010,3.354,0.000,0.759,2.933,3.149,8.827,0.000,34.491
11023,3.354,0.000,0.759,2.933,3.149,8.827,0.000,34.517
11036,3.354,0.000,0.759,2.933,3.149,8.827,0.000,34.510
11049,3.354,0.000,0.759,2.933,3.149,8.827,0.000,34.530
11062,3.354,0.000,0.759,2.933,3.149,8.827,0.000,34.486
11075,3.354,0.000,0.759,2.933,3.149,8.827,0.000,34.463
11088,3.354,0.000,0.759,2.933,3.149,8.827,0.000,34.526
11101,3.354,0.000,0.759,2.933,3.149,8.827,0.000,34.475
11114,3.354,0.000,0.759,2.933,3.149,8.827,0.000,34.469
11127,3.354,0.000,0.759,2.933,3.149,8.827,0.000,34.486
11140,3.354,0.000,0.759,2.933,3.149,8.827,0.000,34.457
11153,3.354,0.000,0.759,2.933,3.149,8.827,0.000,34.479
11166,3.354,0.000,0.759,2.933,3.149,8.827,0.000,34.484
11179,3.354,0.000,0.759,2.933,3.149,8.827,0.000,34.459
11192,3.354,0.000,0.759,2.933,3.149,8.827,0.000,34.484
11205,3.354,0.000,0.759,2.933,3.149,8.827,0.000,34.476
11218,3.354,0.000,0.759,2.933,3.149,8.827,0.000,34.480
11231,3.354,0.000,0.759,2.933,3.149,8.827,0.000,34.517
11244,3.354,0.000,0.759,2.933,3.149,8.827,0.000,34.432
11257,3.354,0.000,0.759,2.933,3.149,8.827,0.000,34.488
11270,3.354,0.000,0.759,2.933,3.149,8.827,0.000,34.496
11283,3.354,0.000,0.759,2.933,3.149,8.827,0.000,34.479
11296,3.354,0.000,0.759,2.933,3.149,8.827,0.000,34.451
11309,3.354,0.000,0.759,2.933,3.149,8.827,0.000,34.481
11322,3.355,0.000,0.759,2.933,3.149,8.827,0.000,34.475
11335,3.354,0.000,0.759,2.933,3.149,8.827,0.000,34.471
11348,3.354,0.000,0.759,2.933,3.149,8.827,0.000,34.497
11361,3.354,0.000,0.759,2.933,3.149,8.827,0.000,34.449
11374,3.355,0.000,0.759,2.933,3.149,8.827,0.000,34.476
11387,3.354,0.000,0.759,2.933,3.149,8.827,0.000,34.498
11400,3.354,0.000,0.759,2.933,3.149,8.827,0.000,34.505
11413,3.354,0.000,0.759,2.933,3.149,8.827,0.000,34.458
11426,3.354,0.000,0.759,2.933,3.149,8.827,0.000,34.512
11439,3.354,0.000,0.759,2.933,3.149,8.827,0.000,34.489
11452,3.354,0.000,0.759,2.933,3.149,8.827,0.000,34.468
11465,3.354,0.000,0.759,2.933,3.149,8.827,0.000,34.504
11478,3.354,0.000,0.759,2.933,3.149,8.827,0.000,34.481
11491,3.354,0.000,0.759,2.933,3.149,8.827,0.000,34.470
11504,3.354,0.000,0.759,2.933,3.149,8.827,0.000,34.477
11517,3.354,0.000,0.759,2.933,3.149,8.827,0.000,34.491
11530,3.354,0.000,0.759,2.933,3.149,8.827,0.000,34.506
11534,3.354,0.000,0.759,2.933,3.149,8.827,0.000,34.442