File: data/T35/1C/1.csv
time_s,voltage_v,current_a,chargecapacity_ah,dischargecapacity_ah,charge_energy_wh,discharge_energy_wh,voltagedot_v_per_s,temp_degc
1,2.927,0.000,0.000,0.000,0.000,0.000,0.000,35.069
29,2.927,0.000,0.000,0.000,0.000,0.000,0.000,35.040
57,2.927,0.000,0.000,0.000,0.000,0.000,0.000,35.021
85,2.927,0.000,0.000,0.000,0.000,0.000,0.000,35.092
113,2.927,0.000,0.000,0.000,0.000,0.000,0.000,35.023
141,2.927,0.000,0.000,0.000,0.000,0.000,0.000,35.080
169,2.927,0.000,0.000,0.000,0.000,0.000,0.000,35.063
197,2.927,0.000,0.000,0.000,0.000,0.000,0.000,35.061
225,2.927,0.000,0.000,0.000,0.000,0.000,0.000,35.080
253,2.927,0.000,0.000,0.000,0.000,0.000,0.000,35.030
281,2.927,0.000,0.000,0.000,0.000,0.000,0.000,35.064
309,2.927,0.000,0.000,0.000,0.000,0.000,0.000,35.050
337,2.927,0.000,0.000,0.000,0.000,0.000,0.000,35.070
365,2.927,0.000,0.000,0.000,0.000,0.000,0.000,35.095
393,2.928,0.000,0.000,0.000,0.000,0.000,0.000,35.086
421,2.928,0.000,0.000,0.000,0.000,0.000,0.000,35.074
449,2.928,0.000,0.000,0.000,0.000,0.000,0.000,35.098
477,2.928,0.000,0.000,0.000,0.000,0.000,0.000,35.079
505,2.928,0.000,0.000,0.000,0.000,0.000,0.000,35.088
533,2.928,0.000,0.000,0.000,0.000,0.000,0.000,35.062
561,2.928,0.000,0.000,0.000,0.000,0.000,0.000,35.103
589,2.928,0.000,0.000,0.000,0.000,0.000,0.000,35.086
617,2.928,0.000,0.000,0.000,0.000,0.000,0.000,35.086
645,2.928,0.000,0.000,0.000,0.000,0.000,0.000,35.094
673,2.928,0.000,0.000,0.000,0.000,0.000,0.000,35.066
701,2.928,0.000,0.000,0.000,0.000,0.000,0.000,35.074
729,2.928,0.000,0.000,0.000,0.000,0.000,0.000,35.070
757,2.928,0.000,0.000,0.000,0.000,0.000,0.000,35.069
785,2.928,0.000,0.000,0.000,0.000,0.000,0.000,35.104
813,2.928,0.000,0.000,0.000,0.000,0.000,0.000,35.114
841,2.929,0.000,0.000,0.000,0.000,0.000,0.000,35.086
869,2.929,0.000,0.000,0.000,0.000,0.000,0.000,35.055
897,2.929,0.000,0.000,0.000,0.000,0.000,0.000,35.038
925,2.929,0.000,0.000,0.000,0.000,0.000,0.000,35.072
953,2.929,0.000,0.000,0.000,0.000,0.000,0.000,35.063
981,2.929,0.000,0.000,0.000,0.000,0.000,0.000,35.119
1009,2.929,0.000,0.000,0.000,0.000,0.000,0.000,35.071
1037,2.929,0.000,0.000,0.000,0.000,0.000,0.000,35.103
1065,2.929,0.000,0.000,0.000,0.000,0.000,0.000,35.067
1093,2.929,0.000,0.000,0.000,0.000,0.000,0.000,35.095
1121,2.929,0.000,0.000,0.000,0.000,0.000,0.000,35.059
1149,2.929,0.000,0.000,0.000,0.000,0.000,0.000,35.085
1177,2.929,0.000,0.000,0.000,0.000,0.000,0.000,35.112
1205,2.929,0.000,0.000,0.000,0.000,0.000,0.000,35.059
1233,2.929,0.000,0.000,0.000,0.000,0.000,0.000,35.104
1261,2.929,0.000,0.000,0.000,0.000,0.000,0.000,35.067
1289,2.930,0.000,0.000,0.000,0.000,0.000,0.000,35.114
1317,2.930,0.000,0.000,0.000,0.000,0.000,0.000,35.037
1345,2.930,0.000,0.000,0.000,0.000,0.000,0.000,35.071
1373,2.930,0.000,0.000,0.000,0.000,0.000,0.000,35.053
1401,2.930,0.000,0.000,0.000,0.000,0.000,0.000,35.059
1429,2.930,0.000,0.000,0.000,0.000,0.000,0.000,35.049
1457,2.930,0.000,0.000,0.000,0.000,0.000,0.000,35.037
1485,2.930,0.000,0.000,0.000,0.000,0.000,0.000,35.055
1513,2.930,0.000,0.000,0.000,0.000,0.000,0.000,35.018
1541,2.930,0.000,0.000,0.000,0.000,0.000,0.000,35.019
1569,2.930,0.000,0.000,0.000,0.000,0.000,0.000,35.058
1597,2.930,0.000,0.000,0.000,0.000,0.000,0.000,35.053
1625,2.930,0.000,0.000,0.000,0.000,0.000,0.000,35.069
1653,2.930,0.000,0.000,0.000,0.000,0.000,0.000,35.059
1681,2.930,0.000,0.000,0.000,0.000,0.000,0.000,35.063
1709,2.931,0.000,0.000,0.000,0.000,0.000,0.000,35.031
1737,2.931,0.000,0.000,0.000,0.000,0.000,0.000,35.032
1765,2.931,0.000,0.000,0.000,0.000,0.000,0.000,35.078
1793,2.931,0.000,0.000,0.000,0.000,0.000,0.000,35.080
1821,2.931,0.000,0.000,0.000,0.000,0.000,0.000,35.090
1849,2.931,0.000,0.000,0.000,0.000,0.000,0.000,35.058
1877,2.931,0.000,0.000,0.000,0.000,0.000,0.000,35.068
1905,2.931,0.000,0.000,0.000,0.000,0.000,0.000,35.053
1933,2.931,0.000,0.000,0.000,0.000,0.000,0.000,35.046
1961,2.931,0.000,0.000,0.000,0.000,0.000,0.000,35.080
1989,2.931,0.000,0.000,0.000,0.000,0.000,0.000,35.074
2017,2.931,0.000,0.000,0.000,0.000,0.000,0.000,35.066
2045,2.931,0.000,0.000,0.000,0.000,0.000,0.000,35.069
2073,2.931,0.000,0.000,0.000,0.000,0.000,0.000,35.067
2101,2.931,0.000,0.000,0.000,0.000,0.000,0.000,35.108
2129,2.932,0.000,0.000,0.000,0.000,0.000,0.000,35.048
2157,2.932,0.000,0.000,0.000,0.000,0.000,0.000,35.076
2185,2.932,0.000,0.000,0.000,0.000,0.000,0.000,35.052
2213,2.932,0.000,0.000,0.000,0.000,0.000,0.000,35.069
2241,2.932,0.000,0.000,0.000,0.000,0.000,0.000,35.062
2269,2.932,0.000,0.000,0.000,0.000,0.000,0.000,35.075
2297,2.932,0.000,0.000,0.000,0.000,0.000,0.000,35.072
2325,2.932,0.000,0.000,0.000,0.000,0.000,0.000,35.053
2353,2.932,0.000,0.000,0.000,0.000,0.000,0.000,35.056
2381,2.932,0.000,0.000,0.000,0.000,0.000,0.000,35.087
2409,2.932,0.000,0.000,0.000,0.000,0.000,0.000,35.048
2437,2.932,0.000,0.000,0.000,0.000,0.000,0.000,35.120
2465,2.932,0.000,0.000,0.000,0.000,0.000,0.000,35.060
2493,2.932,0.000,0.000,0.000,0.000,0.000,0.000,35.061
2521,2.933,0.000,0.000,0.000,0.000,0.000,0.000,35.002
2549,2.932,0.000,0.000,0.000,0.000,0.000,0.000,35.069
2577,2.933,0.000,0.000,0.000,0.000,0.000,0.000,35.046
2605,2.932,0.000,0.000,0.000,0.000,0.000,0.000,35.000
2633,2.933,0.000,0.000,0.000,0.000,0.000,0.000,35.086
2661,2.933,0.000,0.000,0.000,0.000,0.000,0.000,35.063
2689,2.933,0.000,0.000,0.000,0.000,0.000,0.000,35.104
2717,2.933,0.000,0.000,0.000,0.000,0.000,0.000,35.061
2745,2.933,0.000,0.000,0.000,0.000,0.000,0.000,35.067
2773,2.933,0.000,0.000,0.000,0.000,0.000,0.000,35.031
2801,2.933,0.000,0.000,0.000,0.000,0.000,0.000,35.116
2829,2.933,0.000,0.000,0.000,0.000,0.000,0.000,35.098
2857,2.933,0.000,0.000,0.000,0.000,0.000,0.000,35.041
2885,2.933,0.000,0.000,0.000,0.000,0.000,0.000,35.078
2913,2.933,0.000,0.000,0.000,0.000,0.000,0.000,35.043
2941,2.933,0.000,0.000,0.000,0.000,0.000,0.000,35.081
2969,2.933,0.000,0.000,0.000,0.000,0.000,0.000,35.054
2997,2.933,0.000,0.000,0.000,0.000,0.000,0.000,35.055
3025,2.933,0.000,0.000,0.000,0.000,0.000,0.000,35.038
3053,2.934,0.000,0.000,0.000,0.000,0.000,0.000,35.019
3081,2.934,0.000,0.000,0.000,0.000,0.000,0.000,35.055
3109,2.934,0.000,0.000,0.000,0.000,0.000,0.000,35.049
3137,2.934,0.000,0.000,0.000,0.000,0.000,0.000,35.052
3165,2.934,0.000,0.000,0.000,0.000,0.000,0.000,35.096
3193,2.934,0.000,0.000,0.000,0.000,0.000,0.000,35.074
3221,2.934,0.000,0.000,0.000,0.000,0.000,0.000,35.065
3249,2.934,0.000,0.000,0.000,0.000,0.000,0.000,35.045
3277,2.934,0.000,0.000,0.000,0.000,0.000,0.000,35.078
3305,2.934,0.000,0.000,0.000,0.000,0.000,0.000,35.056
3333,2.934,0.000,0.000,0.000,0.000,0.000,0.000,35.127
3361,2.934,0.000,0.000,0.000,0.000,0.000,0.000,35.095
3389,2.934,0.000,0.000,0.000,0.000,0.000,0.000,35.059
3417,2.934,0.000,0.000,0.000,0.000,0.000,0.000,35.075
3445,2.934,0.000,0.000,0.000,0.000,0.000,0.000,35.101
3473,2.934,0.000,0.000,0.000,0.000,0.000,0.000,35.081
3501,2.934,0.000,0.000,0.000,0.000,0.000,0.000,35.052
3529,2.935,0.000,0.000,0.000,0.000,0.000,0.000,35.079
3557,2.935,0.000,0.000,0.000,0.000,0.000,0.000,35.032
3585,2.935,0.000,0.000,0.000,0.000,0.000,0.000,35.053
3612,3.195,1.625,0.005,0.000,0.017,0.000,0.004,35.064
3640,3.274,1.625,0.018,0.000,0.058,0.000,0.002,35.035
3668,3.329,1.625,0.031,0.000,0.100,0.000,0.002,35.048
3696,3.371,1.625,0.043,0.000,0.142,0.000,0.001,35.022
3724,3.407,1.625,0.056,0.000,0.185,0.000,0.001,35.037
3752,3.438,1.625,0.069,0.000,0.228,0.000,0.001,35.063
3780,3.464,1.625,0.081,0.000,0.272,0.000,0.001,35.079
3808,3.487,1.625,0.094,0.000,0.316,0.000,0.001,35.069
3836,3.507,1.625,0.107,0.000,0.360,0.000,0.001,35.121
3864,3.525,1.625,0.119,0.000,0.405,0.000,0.001,35.113
3892,3.538,1.625,0.132,0.000,0.449,0.000,0.001,35.195
3920,3.544,1.625,0.144,0.000,0.494,0.000,0.000,35.153
3948,3.547,1.625,0.157,0.000,0.539,0.000,0.000,35.243
3976,3.550,1.625,0.170,0.000,0.584,0.000,0.000,35.338
4004,3.552,1.625,0.182,0.000,0.628,0.000,0.000,35.366
4032,3.554,1.625,0.195,0.000,0.673,0.000,0.000,35.431
4060,3.557,1.625,0.208,0.000,0.718,0.000,0.000,35.542
4088,3.560,1.625,0.220,0.000,0.763,0.000,0.000,35.572
4116,3.563,1.625,0.233,0.000,0.808,0.000,0.000,35.606
4144,3.565,1.625,0.246,0.000,0.853,0.000,0.000,35.634
4172,3.568,1.625,0.258,0.000,0.898,0.000,0.000,35.681
4200,3.571,1.625,0.271,0.000,0.944,0.000,0.000,35.798
4228,3.574,1.625,0.284,0.000,0.989,0.000,0.000,35.815
4256,3.577,1.625,0.296,0.000,1.034,0.000,0.000,35.839
4284,3.580,1.625,0.309,0.000,1.079,0.000,0.000,35.850
4312,3.583,1.625,0.321,0.000,1.124,0.000,0.000,35.881
4340,3.586,1.625,0.334,0.000,1.170,0.000,0.000,35.915
4368,3.589,1.625,0.347,0.000,1.215,0.000,0.000,35.922
4396,3.592,1.625,0.359,0.000,1.261,0.000,0.000,35.946
4424,3.595,1.625,0.372,0.000,1.306,0.000,0.000,35.949
4452,3.598,1.625,0.385,0.000,1.351,0.000,0.000,35.948
4480,3.601,1.625,0.397,0.000,1.397,0.000,0.000,35.961
4508,3.604,1.625,0.410,0.000,1.442,0.000,0.000,35.991
4536,3.607,1.625,0.423,0.000,1.488,0.000,0.000,36.009
4564,3.611,1.625,0.435,0.000,1.534,0.000,0.000,36.041
4592,3.614,1.625,0.448,0.000,1.579,0.000,0.000,36.050
4620,3.617,1.625,0.460,0.000,1.625,0.000,0.000,36.025
4648,3.620,1.625,0.473,0.000,1.671,0.000,0.000,36.033
4676,3.624,1.625,0.486,0.000,1.717,0.000,0.000,36.056
4704,3.627,1.625,0.498,0.000,1.762,0.000,0.000,36.063
4732,3.631,1.625,0.511,0.000,1.808,0.000,0.000,36.016
4760,3.634,1.625,0.524,0.000,1.854,0.000,0.000,36.036
4788,3.638,1.625,0.536,0.000,1.900,0.000,0.000,36.017
4816,3.642,1.625,0.549,0.000,1.946,0.000,0.000,36.004
4844,3.646,1.625,0.562,0.000,1.992,0.000,0.000,36.021
4872,3.649,1.625,0.574,0.000,2.038,0.000,0.000,36.016
4900,3.653,1.625,0.587,0.000,2.084,0.000,0.000,35.987
4928,3.656,1.625,0.600,0.000,2.131,0.000,0.000,35.982
4956,3.660,1.625,0.612,0.000,2.177,0.000,0.000,35.940
4984,3.663,1.625,0.625,0.000,2.223,0.000,0.000,35.985
5012,3.666,1.625,0.637,0.000,2.269,0.000,0.000,35.961
5040,3.669,1.625,0.650,0.000,2.316,0.000,0.000,35.923
5068,3.672,1.625,0.663,0.000,2.362,0.000,0.000,35.933
5096,3.675,1.625,0.675,0.000,2.409,0.000,0.000,35.887
5124,3.678,1.625,0.688,0.000,2.455,0.000,0.000,35.924
5152,3.680,1.625,0.701,0.000,2.502,0.000,0.000,35.870
5180,3.683,1.625,0.713,0.000,2.548,0.000,0.000,35.881
5208,3.686,1.625,0.726,0.000,2.595,0.000,0.000,35.914
5236,3.688,1.625,0.739,0.000,2.641,0.000,0.000,35.924
5264,3.691,1.625,0.751,0.000,2.688,0.000,0.000,35.926
5292,3.693,1.625,0.764,0.000,2.735,0.000,0.000,35.863
5320,3.696,1.625,0.776,0.000,2.781,0.000,0.000,35.883
5348,3.698,1.625,0.789,0.000,2.828,0.000,0.000,35.885
5376,3.701,1.625,0.802,0.000,2.875,0.000,0.000,35.901
5404,3.703,1.625,0.814,0.000,2.922,0.000,0.000,35.892
5432,3.706,1.625,0.827,0.000,2.968,0.000,0.000,35.915
5460,3.709,1.625,0.840,0.000,3.015,0.000,0.000,35.917
5488,3.711,1.625,0.852,0.000,3.062,0.000,0.000,35.892
5516,3.714,1.625,0.865,0.000,3.109,0.000,0.000,35.877
5544,3.716,1.625,0.878,0.000,3.156,0.000,0.000,35.900
5572,3.719,1.625,0.890,0.000,3.203,0.000,0.000,35.918
5600,3.722,1.625,0.903,0.000,3.250,0.000,0.000,35.952
5628,3.724,1.625,0.916,0.000,3.297,0.000,0.000,35.901
5656,3.727,1.625,0.928,0.000,3.344,0.000,0.000,35.925
5684,3.730,1.625,0.941,0.000,3.391,0.000,0.000,35.964
5712,3.732,1.625,0.953,0.000,3.439,0.000,0.000,35.971
5740,3.735,1.625,0.966,0.000,3.486,0.000,0.000,35.958
5768,3.737,1.625,0.979,0.000,3.533,0.000,0.000,35.945
5796,3.740,1.625,0.991,0.000,3.580,0.000,0.000,35.953
5824,3.743,1.625,1.004,0.000,3.628,0.000,0.000,36.004
5852,3.745,1.625,1.017,0.000,3.675,0.000,0.000,36.005
5880,3.748,1.625,1.029,0.000,3.722,0.000,0.000,36.007
5908,3.750,1.625,1.042,0.000,3.770,0.000,0.000,36.009
5936,3.753,1.625,1.055,0.000,3.817,0.000,0.000,35.967
5964,3.756,1.625,1.067,0.000,3.865,0.000,0.000,35.992
5992,3.759,1.625,1.080,0.000,3.912,0.000,0.000,36.001
6020,3.761,1.625,1.092,0.000,3.960,0.000,0.000,36.058
6048,3.763,1.625,1.105,0.000,4.007,0.000,0.000,36.057
6076,3.766,1.625,1.118,0.000,4.055,0.000,0.000,36.049
6104,3.769,1.625,1.130,0.000,4.102,0.000,0.000,36.097
6132,3.771,1.625,1.143,0.000,4.150,0.000,0.000,36.061
6160,3.774,1.625,1.156,0.000,4.198,0.000,0.000,36.109
6188,3.776,1.625,1.168,0.000,4.245,0.000,0.000,36.120
6216,3.779,1.625,1.181,0.000,4.293,0.000,0.000,36.097
6244,3.781,1.625,1.194,0.000,4.341,0.000,0.000,36.141
6272,3.784,1.625,1.206,0.000,4.389,0.000,0.000,36.191
6300,3.786,1.625,1.219,0.000,4.437,0.000,0.000,36.158
6328,3.789,1.625,1.232,0.000,4.484,0.000,0.000,36.152
6356,3.791,1.625,1.244,0.000,4.532,0.000,0.000,36.184
6384,3.793,1.625,1.257,0.000,4.580,0.000,0.000,36.183
6412,3.795,1.625,1.269,0.000,4.628,0.000,0.000,36.153
6440,3.798,1.625,1.282,0.000,4.676,0.000,0.000,36.193
6468,3.800,1.625,1.295,0.000,4.724,0.000,0.000,36.167
6496,3.803,1.625,1.307,0.000,4.772,0.000,0.000,36.127
6524,3.805,1.625,1.320,0.000,4.820,0.000,0.000,36.162
6552,3.807,1.625,1.333,0.000,4.868,0.000,0.000,36.163
6580,3.810,1.625,1.345,0.000,4.917,0.000,0.000,36.161
6608,3.812,1.625,1.358,0.000,4.965,0.000,0.000,36.150
6636,3.814,1.625,1.371,0.000,5.013,0.000,0.000,36.158
6664,3.816,1.625,1.383,0.000,5.061,0.000,0.000,36.142
6692,3.819,1.625,1.396,0.000,5.109,0.000,0.000,36.159
6720,3.821,1.625,1.409,0.000,5.158,0.000,0.000,36.213
6748,3.824,1.625,1.421,0.000,5.206,0.000,0.000,36.216
6776,3.826,1.625,1.434,0.000,5.254,0.000,0.000,36.233
6804,3.829,1.625,1.446,0.000,5.303,0.000,0.000,36.237
6832,3.831,1.625,1.459,0.000,5.351,0.000,0.000,36.224
6860,3.834,1.625,1.472,0.000,5.400,0.000,0.000,36.200
6888,3.837,1.625,1.484,0.000,5.448,0.000,0.000,36.239
6916,3.839,1.625,1.497,0.000,5.497,0.000,0.000,36.236
6944,3.842,1.625,1.510,0.000,5.545,0.000,0.000,36.246
6972,3.845,1.625,1.522,0.000,5.594,0.000,0.000,36.191
7000,3.847,1.625,1.535,0.000,5.642,0.000,0.000,36.223
7028,3.850,1.625,1.548,0.000,5.691,0.000,0.000,36.241
7056,3.853,1.625,1.560,0.000,5.740,0.000,0.000,36.215
7084,3.856,1.625,1.573,0.000,5.788,0.000,0.000,36.258
7112,3.859,1.625,1.585,0.000,5.837,0.000,0.000,36.260
7140,3.861,1.625,1.598,0.000,5.886,0.000,0.000,36.231
7168,3.864,1.625,1.611,0.000,5.935,0.000,0.000,36.235
7196,3.867,1.625,1.623,0.000,5.984,0.000,0.000,36.192
7224,3.870,1.625,1.636,0.000,6.033,0.000,0.000,36.297
7252,3.873,1.625,1.649,0.000,6.082,0.000,0.000,36.242
7280,3.876,1.625,1.661,0.000,6.131,0.000,0.000,36.232
7308,3.879,1.625,1.674,0.000,6.180,0.000,0.000,36.247
7336,3.883,1.625,1.687,0.000,6.229,0.000,0.000,36.273
7364,3.885,1.625,1.699,0.000,6.278,0.000,0.000,36.229
7392,3.889,1.625,1.712,0.000,6.327,0.000,0.000,36.217
7420,3.892,1.625,1.725,0.000,6.376,0.000,0.000,36.260
7448,3.895,1.625,1.737,0.000,6.425,0.000,0.000,36.216
7476,3.899,1.625,1.750,0.000,6.474,0.000,0.000,36.250
7504,3.902,1.625,1.762,0.000,6.524,0.000,0.000,36.266
7532,3.905,1.625,1.775,0.000,6.573,0.000,0.000,36.243
7560,3.909,1.625,1.788,0.000,6.622,0.000,0.000,36.284
7588,3.912,1.625,1.800,0.000,6.672,0.000,0.000,36.261
7616,3.915,1.625,1.813,0.000,6.721,0.000,0.000,36.293
7644,3.919,1.625,1.826,0.000,6.771,0.000,0.000,36.270
7672,3.922,1.625,1.838,0.000,6.820,0.000,0.000,36.295
7700,3.926,1.625,1.851,0.000,6.870,0.000,0.000,36.223
7728,3.929,1.625,1.864,0.000,6.920,0.000,0.000,36.267
7756,3.933,1.625,1.876,0.000,6.969,0.000,0.000,36.268
7784,3.936,1.625,1.889,0.000,7.019,0.000,0.000,36.263
7812,3.940,1.625,1.901,0.000,7.069,0.000,0.000,36.272
7840,3.943,1.625,1.914,0.000,7.119,0.000,0.000,36.267
7868,3.947,1.625,1.927,0.000,7.169,0.000,0.000,36.249
7896,3.950,1.625,1.939,0.000,7.219,0.000,0.000,36.263
7924,3.954,1.625,1.952,0.000,7.268,0.000,0.000,36.221
7952,3.958,1.625,1.965,0.000,7.318,0.000,0.000,36.296
7980,3.961,1.625,1.977,0.000,7.369,0.000,0.000,36.312
8008,3.965,1.625,1.990,0.000,7.419,0.000,0.000,36.304
8036,3.968,1.625,2.003,0.000,7.469,0.000,0.000,36.247
8064,3.972,1.625,2.015,0.000,7.519,0.000,0.000,36.292
8092,3.976,1.625,2.028,0.000,7.569,0.000,0.000,36.253
8120,3.979,1.625,2.041,0.000,7.619,0.000,0.000,36.290
8148,3.983,1.625,2.053,0.000,7.670,0.000,0.000,36.249
8176,3.986,1.625,2.066,0.000,7.720,0.000,0.000,36.273
8204,3.990,1.625,2.078,0.000,7.771,0.000,0.000,36.270
8232,3.993,1.625,2.091,0.000,7.821,0.000,0.000,36.267
8260,3.997,1.625,2.104,0.000,7.872,0.000,0.000,36.210
8288,4.001,1.625,2.116,0.000,7.922,0.000,0.000,36.263
8316,4.004,1.625,2.129,0.000,7.973,0.000,0.000,36.257
8344,4.008,1.625,2.142,0.000,8.023,0.000,0.000,36.247
8372,4.011,1.625,2.154,0.000,8.074,0.000,0.000,36.246
8400,4.015,1.625,2.167,0.000,8.125,0.000,0.000,36.231
8428,4.018,1.625,2.180,0.000,8.175,0.000,0.000,36.236
8456,4.022,1.625,2.192,0.000,8.226,0.000,0.000,36.218
8484,4.025,1.625,2.205,0.000,8.277,0.000,0.000,36.292
8512,4.029,1.625,2.218,0.000,8.328,0.000,0.000,36.277
8540,4.033,1.625,2.230,0.000,8.379,0.000,0.000,36.237
8568,4.036,1.625,2.243,0.000,8.430,0.000,0.000,36.229
8596,4.039,1.625,2.255,0.000,8.481,0.000,0.000,36.259
8624,4.043,1.625,2.268,0.000,8.532,0.000,0.000,36.262
8652,4.046,1.625,2.281,0.000,8.583,0.000,0.000,36.269
8680,4.050,1.625,2.293,0.000,8.634,0.000,0.000,36.264
8708,4.053,1.625,2.306,0.000,8.686,0.000,0.000,36.199
8736,4.057,1.625,2.319,0.000,8.737,0.000,0.000,36.185
8764,4.060,1.625,2.331,0.000,8.788,0.000,0.000,36.204
8792,4.064,1.625,2.344,0.000,8.840,0.000,0.000,36.229
8820,4.067,1.625,2.357,0.000,8.891,0.000,0.000,36.237
8848,4.071,1.625,2.369,0.000,8.942,0.000,0.000,36.240
8876,4.074,1.625,2.382,0.000,8.994,0.000,0.000,36.232
8904,4.078,1.625,2.394,0.000,9.045,0.000,0.000,36.226
8932,4.081,1.625,2.407,0.000,9.097,0.000,0.000,36.255
8960,4.085,1.625,2.420,0.000,9.149,0.000,0.000,36.213
8988,4.089,1.625,2.432,0.000,9.200,0.000,0.000,36.241
9016,4.092,1.625,2.445,0.000,9.252,0.000,0.000,36.226
9044,4.096,1.625,2.458,0.000,9.304,0.000,0.000,36.199
9072,4.100,1.625,2.470,0.000,9.355,0.000,0.000,36.154
9100,4.103,1.625,2.483,0.000,9.407,0.000,0.000,36.163
9128,4.107,1.625,2.496,0.000,9.459,0.000,0.000,36.185
9156,4.111,1.625,2.508,0.000,9.511,0.000,0.000,36.204
9184,4.115,1.625,2.521,0.000,9.563,0.000,0.000,36.245
9212,4.119,1.625,2.534,0.000,9.615,0.000,0.000,36.247
9240,4.123,1.625,2.546,0.000,9.667,0.000,0.000,36.223
9268,4.127,1.625,2.559,0.000,9.719,0.000,0.000,36.255
9296,4.131,1.625,2.571,0.000,9.772,0.000,0.000,36.261
9324,4.135,1.625,2.584,0.000,9.824,0.000,0.000,36.198
9352,4.139,1.625,2.597,0.000,9.876,0.000,0.000,36.236
9380,4.143,1.625,2.609,0.000,9.928,0.000,0.000,36.247
9408,4.148,1.625,2.622,0.000,9.981,0.000,0.000,36.281
9436,4.152,1.625,2.635,0.000,10.033,0.000,0.000,36.270
9464,4.157,1.625,2.647,0.000,10.086,0.000,0.000,36.224
9492,4.161,1.625,2.660,0.000,10.138,0.000,0.000,36.256
9520,4.166,1.625,2.673,0.000,10.191,0.000,0.000,36.228
9548,4.170,1.625,2.685,0.000,10.244,0.000,0.000,36.250
9576,4.175,1.625,2.698,0.000,10.296,0.000,0.000,36.259
9604,4.180,1.625,2.710,0.000,10.349,0.000,0.000,36.291
9632,4.184,1.625,2.723,0.000,10.402,0.000,0.000,36.284
9660,4.189,1.625,2.736,0.000,10.455,0.000,0.000,36.279
9688,4.194,1.625,2.748,0.000,10.508,0.000,0.000,36.305
9716,4.199,1.625,2.761,0.000,10.561,0.000,0.000,36.316
9743,4.200,1.583,2.773,0.000,10.612,0.000,0.000,36.300
9771,4.200,1.538,2.785,0.000,10.663,0.000,0.000,36.289
9799,4.200,1.497,2.797,0.000,10.713,0.000,0.000,36.312
9827,4.200,1.459,2.809,0.000,10.761,0.000,0.000,36.308
9855,4.200,1.422,2.820,0.000,10.808,0.000,0.000,36.317
9883,4.200,1.388,2.831,0.000,10.854,0.000,0.000,36.268
9911,4.200,1.354,2.841,0.000,10.899,0.000,0.000,36.261
9939,4.200,1.322,2.852,0.000,10.943,0.000,0.000,36.205
9967,4.200,1.291,2.862,0.000,10.985,0.000,0.000,36.225
9995,4.200,1.260,2.872,0.000,11.027,0.000,0.000,36.201
10023,4.200,1.231,2.882,0.000,11.068,0.000,0.000,36.169
10051,4.200,1.202,2.891,0.000,11.107,0.000,0.000,36.154
10079,4.200,1.174,2.900,0.000,11.146,0.000,0.000,36.113
10107,4.200,1.148,2.909,0.000,11.184,0.000,0.000,36.130
10135,4.200,1.122,2.918,0.000,11.221,0.000,0.000,36.100
10163,4.200,1.097,2.927,0.000,11.257,0.000,0.000,36.057
10191,4.200,1.073,2.935,0.000,11.293,0.000,0.000,36.057
10219,4.200,1.050,2.944,0.000,11.327,0.000,0.000,36.055
10247,4.200,1.028,2.952,0.000,11.361,0.000,0.000,36.016
10275,4.200,1.006,2.959,0.000,11.395,0.000,0.000,35.979
10303,4.200,0.985,2.967,0.000,11.427,0.000,0.000,35.960
10331,4.200,0.965,2.975,0.000,11.459,0.000,0.000,35.939
10359,4.200,0.946,2.982,0.000,11.490,0.000,0.000,35.941
10387,4.200,0.927,2.990,0.000,11.521,0.000,0.000,35.901
10415,4.200,0.909,2.997,0.000,11.551,0.000,0.000,35.836
10443,4.200,0.891,3.004,0.000,11.580,0.000,0.000,35.885
10471,4.200,0.875,3.011,0.000,11.609,0.000,0.000,35.821
10499,4.200,0.858,3.017,0.000,11.637,0.000,0.000,35.789
10527,4.200,0.842,3.024,0.000,11.665,0.000,0.000,35.792
10555,4.200,0.827,3.030,0.000,11.692,0.000,0.000,35.761
10583,4.200,0.812,3.037,0.000,11.719,0.000,0.000,35.746
10611,4.200,0.798,3.043,0.000,11.745,0.000,0.000,35.762
10639,4.200,0.784,3.049,0.000,11.771,0.000,0.000,35.721
10667,4.200,0.771,3.055,0.000,11.797,0.000,0.000,35.689
10695,4.200,0.757,3.061,0.000,11.821,0.000,0.000,35.700
10723,4.200,0.745,3.067,0.000,11.846,0.000,0.000,35.632
10751,4.200,0.732,3.073,0.000,11.870,0.000,0.000,35.626
10779,4.200,0.720,3.078,0.000,11.894,0.000,0.000,35.605
10807,4.200,0.709,3.084,0.000,11.917,0.000,0.000,35.598
10835,4.200,0.696,3.089,0.000,11.940,0.000,0.000,35.580
10863,4.200,0.686,3.095,0.000,11.963,0.000,0.000,35.597
10891,4.200,0.673,3.100,0.000,11.985,0.000,0.000,35.581
10919,4.200,0.663,3.105,0.000,12.007,0.000,0.000,35.573
10947,4.200,0.652,3.110,0.000,12.028,0.000,0.000,35.562
10975,4.200,0.641,3.115,0.000,12.049,0.000,0.000,35.561
11003,4.200,0.630,3.120,0.000,12.070,0.000,0.000,35.514
11031,4.200,0.620,3.125,0.000,12.090,0.000,0.000,35.456
11059,4.200,0.610,3.130,0.000,12.111,0.000,0.000,35.483
11087,4.200,0.600,3.135,0.000,12.130,0.000,0.000,35.511
11115,4.200,0.589,3.139,0.000,12.150,0.000,0.000,35.519
11143,4.200,0.580,3.144,0.000,12.169,0.000,0.000,35.473
11171,4.200,0.570,3.148,0.000,12.188,0.000,0.000,35.468
11199,4.200,0.561,3.153,0.000,12.206,0.000,0.000,35.442
11227,4.200,0.551,3.157,0.000,12.224,0.000,0.000,35.429
11255,4.200,0.542,3.161,0.000,12.242,0.000,0.000,35.474
11283,4.200,0.532,3.165,0.000,12.260,0.000,0.000,35.425
11311,4.200,0.523,3.170,0.000,12.277,0.000,0.000,35.399
11339,4.200,0.513,3.174,0.000,12.294,0.000,0.000,35.383
11367,4.200,0.505,3.178,0.000,12.310,0.000,0.000,35.423
11395,4.200,0.495,3.181,0.000,12.327,0.000,0.000,35.449
11423,4.200,0.486,3.185,0.000,12.343,0.000,0.000,35.398
11451,4.200,0.478,3.189,0.000,12.358,0.000,0.000,35.385
11479,4.200,0.469,3.193,0.000,12.374,0.000,0.000,35.395
11507,4.200,0.460,3.196,0.000,12.389,0.000,0.000,35.377
11535,4.200,0.451,3.200,0.000,12.404,0.000,0.000,35.336
11563,4.200,0.443,3.203,0.000,12.419,0.000,0.000,35.325
11591,4.200,0.435,3.207,0.000,12.433,0.000,0.000,35.344
11619,4.200,0.426,3.210,0.000,12.447,0.000,0.000,35.356
11647,4.200,0.418,3.213,0.000,12.461,0.000,0.000,35.338
11675,4.200,0.410,3.217,0.000,12.474,0.000,0.000,35.316
11703,4.200,0.402,3.220,0.000,12.488,0.000,0.000,35.336
11731,4.200,0.394,3.223,0.000,12.500,0.000,0.000,35.299
11759,4.200,0.386,3.226,0.000,12.513,0.000,0.000,35.311
11787,4.200,0.378,3.229,0.000,12.526,0.000,0.000,35.282
11815,4.200,0.371,3.232,0.000,12.538,0.000,0.000,35.352
11843,4.200,0.363,3.235,0.000,12.550,0.000,0.000,35.286
11871,4.200,0.355,3.237,0.000,12.562,0.000,0.000,35.271
11899,4.200,0.348,3.240,0.000,12.573,0.000,0.000,35.255
11927,4.200,0.341,3.243,0.000,12.584,0.000,0.000,35.285
11955,4.200,0.334,3.245,0.000,12.595,0.000,0.000,35.302
11983,4.200,0.326,3.248,0.000,12.606,0.000,0.000,35.255
12011,4.200,0.320,3.250,0.000,12.617,0.000,0.000,35.261
12039,4.200,0.313,3.253,0.000,12.627,0.000,0.000,35.263
12067,4.200,0.306,3.255,0.000,12.637,0.000,0.000,35.274
12095,4.200,0.300,3.258,0.000,12.647,0.000,0.000,35.228
12123,4.200,0.293,3.260,0.000,12.657,0.000,0.000,35.225
12151,4.200,0.286,3.262,0.000,12.666,0.000,0.000,35.226
12179,4.200,0.280,3.264,0.000,12.675,0.000,0.000,35.224
12207,4.200,0.274,3.267,0.000,12.684,0.000,0.000,35.233
12235,4.200,0.267,3.269,0.000,12.693,0.000,0.000,35.201
12263,4.200,0.261,3.271,0.000,12.702,0.000,0.000,35.226
12291,4.200,0.256,3.273,0.000,12.710,0.000,0.000,35.231
12319,4.200,0.250,3.275,0.000,12.719,0.000,0.000,35.246
12347,4.200,0.244,3.277,0.000,12.727,0.000,0.000,35.222
12375,4.200,0.239,3.279,0.000,12.735,0.000,0.000,35.185
12403,4.200,0.233,3.280,0.000,12.742,0.000,0.000,35.253
12431,4.200,0.228,3.282,0.000,12.750,0.000,0.000,35.199
12459,4.200,0.222,3.284,0.000,12.757,0.000,0.000,35.204
12487,4.200,0.217,3.286,0.000,12.764,0.000,0.000,35.208
12515,4.200,0.212,3.287,0.000,12.771,0.000,0.000,35.189
12543,4.200,0.207,3.289,0.000,12.778,0.000,0.000,35.190
12571,4.200,0.202,3.291,0.000,12.785,0.000,0.000,35.168
12599,4.200,0.197,3.292,0.000,12.791,0.000,0.000,35.239
12627,4.200,0.193,3.294,0.000,12.798,0.000,0.000,35.184
12655,4.200,0.188,3.295,0.000,12.804,0.000,0.000,35.181
12683,4.200,0.184,3.297,0.000,12.810,0.000,0.000,35.193
12711,4.200,0.179,3.298,0.000,12.816,0.000,0.000,35.155
12739,4.200,0.175,3.299,0.000,12.822,0.000,0.000,35.171
12767,4.200,0.171,3.301,0.000,12.827,0.000,0.000,35.158
12795,4.200,0.167,3.302,0.000,12.833,0.000,0.000,35.145
12823,4.200,0.163,3.303,0.000,12.838,0.000,0.000,35.158
12851,4.200,0.159,3.304,0.000,12.844,0.000,0.000,35.154
12879,4.200,0.155,3.306,0.000,12.849,0.000,0.000,35.125
12907,4.200,0.151,3.307,0.000,12.854,0.000,0.000,35.179
12935,4.200,0.148,3.308,0.000,12.859,0.000,0.000,35.165
12963,4.200,0.144,3.309,0.000,12.863,0.000,0.000,35.177
12991,4.200,0.141,3.310,0.000,12.868,0.000,0.000,35.158
13019,4.200,0.138,3.311,0.000,12.873,0.000,0.000,35.144
13047,4.200,0.134,3.312,0.000,12.877,0.000,0.000,35.171
13075,4.200,0.131,3.313,0.000,12.881,0.000,0.000,35.147
13103,4.200,0.128,3.314,0.000,12.886,0.000,0.000,35.156
13131,4.200,0.125,3.315,0.000,12.890,0.000,0.000,35.148
13159,4.200,0.122,3.316,0.000,12.894,0.000,0.000,35.162
13187,4.200,0.119,3.317,0.000,12.898,0.000,0.000,35.130
13215,4.200,0.116,3.318,0.000,12.901,0.000,0.000,35.089
13243,4.200,0.114,3.319,0.000,12.905,0.000,0.000,35.129
13271,4.200,0.111,3.320,0.000,12.909,0.000,0.000,35.120
13299,4.200,0.108,3.321,0.000,12.912,0.000,0.000,35.092
13327,4.200,0.106,3.322,0.000,12.916,0.000,0.000,35.103
13355,4.200,0.103,3.323,0.000,12.919,0.000,0.000,35.133
13383,4.200,0.101,3.323,0.000,12.923,0.000,0.000,35.089
13411,4.200,0.099,3.324,0.000,12.926,0.000,0.000,35.109
13439,4.200,0.096,3.325,0.000,12.929,0.000,0.000,35.099
13467,4.200,0.094,3.326,0.000,12.932,0.000,0.000,35.138
13495,4.200,0.092,3.326,0.000,12.935,0.000,0.000,35.151
13523,4.200,0.090,3.327,0.000,12.938,0.000,0.000,35.114
13551,4.200,0.088,3.328,0.000,12.941,0.000,0.000,35.083
13579,4.200,0.086,3.328,0.000,12.944,0.000,0.000,35.088
13607,4.200,0.084,3.329,0.000,12.947,0.000,0.000,35.106
13635,4.200,0.082,3.330,0.000,12.949,0.000,0.000,35.058
13663,4.200,0.080,3.330,0.000,12.952,0.000,0.000,35.078
13691,4.200,0.079,3.331,0.000,12.955,0.000,0.000,35.107
13719,4.200,0.077,3.332,0.000,12.957,0.000,0.000,35.062
13747,4.200,0.075,3.332,0.000,12.960,0.000,0.000,35.086
13775,4.200,0.073,3.333,0.000,12.962,0.000,0.000,35.116
13803,4.200,0.071,3.333,0.000,12.964,0.000,0.000,35.097
13831,4.200,0.070,3.334,0.000,12.967,0.000,0.000,35.078
13859,4.200,0.068,3.334,0.000,12.969,0.000,0.000,35.087
13887,4.200,0.067,3.335,0.000,12.971,0.000,0.000,35.096
13915,4.194,0.000,3.335,0.000,12.972,0.000,0.000,35.119
13943,4.193,0.000,3.335,0.000,12.972,0.000,0.000,35.068
13971,4.192,0.000,3.335,0.000,12.972,0.000,0.000,35.102
13999,4.192,0.000,3.335,0.000,12.972,0.000,0.000,35.067
14027,4.191,0.000,3.335,0.000,12.972,0.000,0.000,35.044
14055,4.191,0.000,3.335,0.000,12.972,0.000,0.000,35.066
14083,4.191,0.000,3.335,0.000,12.972,0.000,0.000,35.041
14111,4.190,0.000,3.335,0.000,12.972,0.000,0.000,35.085
14139,4.190,0.000,3.335,0.000,12.972,0.000,0.000,35.078
14167,4.190,0.000,3.335,0.000,12.972,0.000,0.000,35.098
14195,4.190,0.000,3.335,0.000,12.972,0.000,0.000,35.058
14223,4.190,0.000,3.335,0.000,12.972,0.000,0.000,35.071
14251,4.189,0.000,3.335,0.000,12.972,0.000,0.000,35.097
14279,4.189,0.000,3.335,0.000,12.972,0.000,0.000,35.048
14307,4.189,0.000,3.335,0.000,12.972,0.000,0.000,35.081
14335,4.188,0.000,3.335,0.000,12.972,0.000,0.000,35.064
14363,4.188,0.000,3.335,0.000,12.972,0.000,0.000,35.062
14391,4.188,0.000,3.335,0.000,12.972,0.000,0.000,35.103
14419,4.188,0.000,3.335,0.000,12.972,0.000,0.000,35.083
14447,4.188,0.000,3.335,0.000,12.972,0.000,0.000,35.103
14475,4.188,0.000,3.335,0.000,12.972,0.000,0.000,35.054
14503,4.187,0.000,3.335,0.000,12.972,0.000,0.000,35.102
14531,4.188,0.000,3.335,0.000,12.972,0.000,0.000,35.138
14559,4.187,0.000,3.335,0.000,12.972,0.000,0.000,35.055
14587,4.187,0.000,3.335,0.000,12.972,0.000,0.000,35.078
14615,4.187,0.000,3.335,0.000,12.972,0.000,0.000,35.107
14643,4.187,0.000,3.335,0.000,12.972,0.000,0.000,35.110
14671,4.187,0.000,3.335,0.000,12.972,0.000,0.000,35.097
14699,4.187,0.000,3.335,0.000,12.972,0.000,0.000,35.123
14727,4.186,0.000,3.335,0.000,12.972,0.000,0.000,35.045
14755,4.186,0.000,3.335,0.000,12.972,0.000,0.000,35.143
14783,4.186,0.000,3.335,0.000,12.972,0.000,0.000,35.091
14811,4.186,0.000,3.335,0.000,12.972,0.000,0.000,35.095
14839,4.186,0.000,3.335,0.000,12.972,0.000,0.000,35.090
14867,4.186,0.000,3.335,0.000,12.972,0.000,0.000,35.109
14895,4.186,0.000,3.335,0.000,12.972,0.000,0.000,35.087
14923,4.186,0.000,3.335,0.000,12.972,0.000,0.000,35.049
14951,4.186,0.000,3.335,0.000,12.972,0.000,0.000,35.087
14979,4.185,0.000,3.335,0.000,12.972,0.000,0.000,35.064
15007,4.185,0.000,3.335,0.000,12.972,0.000,0.000,35.074
15035,4.185,0.000,3.335,0.000,12.972,0.000,0.000,35.048
15063,4.185,0.000,3.335,0.000,12.972,0.000,0.000,35.055
15091,4.185,0.000,3.335,0.000,12.972,0.000,0.000,35.087
15119,4.185,0.000,3.335,0.000,12.972,0.000,0.000,35.072
15147,4.185,0.000,3.335,0.000,12.972,0.000,0.000,35.050
15175,4.185,0.000,3.335,0.000,12.972,0.000,0.000,35.067
15203,4.185,0.000,3.335,0.000,12.972,0.000,0.000,35.100
15231,4.185,0.000,3.335,0.000,12.972,0.000,0.000,35.059
15259,4.185,0.000,3.335,0.000,12.972,0.000,0.000,35.050
15287,4.185,0.000,3.335,0.000,12.972,0.000,0.000,35.061
15315,4.185,0.000,3.335,0.000,12.972,0.000,0.000,35.064
15343,4.184,0.000,3.335,0.000,12.972,0.000,0.000,35.077
15371,4.184,0.000,3.335,0.000,12.972,0.000,0.000,35.087
15399,4.184,0.000,3.335,0.000,12.972,0.000,0.000,35.095
15427,4.184,0.000,3.335,0.000,12.972,0.000,0.000,35.072
15455,4.184,0.000,3.335,0.000,12.972,0.000,0.000,35.068
15483,4.184,0.000,3.335,0.000,12.972,0.000,0.000,35.063
15511,4.184,0.000,3.335,0.000,12.972,0.000,0.000,35.084
15539,4.184,0.000,3.335,0.000,12.972,0.000,0.000,35.087
15567,4.184,0.000,3.335,0.000,12.972,0.000,0.000,35.054
15595,4.184,0.000,3.335,0.000,12.972,0.000,0.000,35.043
15623,4.184,0.000,3.335,0.000,12.972,0.000,0.000,35.071
15651,4.184,0.000,3.335,0.000,12.972,0.000,0.000,35.073
15679,4.184,0.000,3.335,0.000,12.972,0.000,0.000,35.093
15707,4.183,0.000,3.335,0.000,12.972,0.000,0.000,35.053
15735,4.183,0.000,3.335,0.000,12.972,0.000,0.000,35.055
15763,4.183,0.000,3.335,0.000,12.972,0.000,0.000,35.031
15791,4.183,0.000,3.335,0.000,12.972,0.000,0.000,35.041
15819,4.183,0.000,3.335,0.000,12.972,0.000,0.000,35.071
15847,4.183,0.000,3.335,0.000,12.972,0.000,0.000,35.075
15875,4.183,0.000,3.335,0.000,12.972,0.000,0.000,35.077
15903,4.183,0.000,3.335,0.000,12.972,0.000,0.000,35.066
15931,4.183,0.000,3.335,0.000,12.972,0.000,0.000,35.065
15959,4.183,0.000,3.335,0.000,12.972,0.000,0.000,35.058
15987,4.183,0.000,3.335,0.000,12.972,0.000,0.000,35.070
16015,4.183,0.000,3.335,0.000,12.972,0.000,0.000,35.061
16043,4.183,0.000,3.335,0.000,12.972,0.000,0.000,35.083
16071,4.183,0.000,3.335,0.000,12.972,0.000,0.000,35.075
16099,4.183,0.000,3.335,0.000,12.972,0.000,0.000,35.113
16127,4.183,0.000,3.335,0.000,12.972,0.000,0.000,35.093
16155,4.183,0.000,3.335,0.000,12.972,0.000,0.000,35.092
16183,4.183,0.000,3.335,0.000,12.972,0.000,0.000,35.044
16211,4.183,0.000,3.335,0.000,12.972,0.000,0.000,35.060
16239,4.183,0.000,3.335,0.000,12.972,0.000,0.000,35.058
16267,4.182,0.000,3.335,0.000,12.972,0.000,0.000,35.051
16295,4.182,0.000,3.335,0.000,12.972,0.000,0.000,35.039
16323,4.182,0.000,3.335,0.000,12.972,0.000,0.000,35.085
16351,4.182,0.000,3.335,0.000,12.972,0.000,0.000,35.087
16379,4.182,0.000,3.335,0.000,12.972,0.000,0.000,35.063
16407,4.182,0.000,3.335,0.000,12.972,0.000,0.000,35.029
16435,4.182,0.000,3.335,0.000,12.972,0.000,0.000,35.049
16463,4.182,0.000,3.335,0.000,12.972,0.000,0.000,35.066
16491,4.182,0.000,3.335,0.000,12.972,0.000,0.000,35.062
16519,4.182,0.000,3.335,0.000,12.972,0.000,0.000,35.071
16547,4.182,0.000,3.335,0.000,12.972,0.000,0.000,35.062
16575,4.182,0.000,3.335,0.000,12.972,0.000,0.000,35.057
16603,4.182,0.000,3.335,0.000,12.972,0.000,0.000,35.077
16631,4.182,0.000,3.335,0.000,12.972,0.000,0.000,35.023
16659,4.182,0.000,3.335,0.000,12.972,0.000,0.000,35.035
16687,4.182,0.000,3.335,0.000,12.972,0.000,0.000,35.077
16715,4.182,0.000,3.335,0.000,12.972,0.000,0.000,35.065
16743,4.182,0.000,3.335,0.000,12.972,0.000,0.000,35.086
16771,4.182,0.000,3.335,0.000,12.972,0.000,0.000,35.075
16799,4.182,0.000,3.335,0.000,12.972,0.000,0.000,35.084
16827,4.181,0.000,3.335,0.000,12.972,0.000,0.000,35.058
16855,4.182,0.000,3.335,0.000,12.972,0.000,0.000,35.082
16883,4.181,0.000,3.335,0.000,12.972,0.000,0.000,35.086
16911,4.181,0.000,3.335,0.000,12.972,0.000,0.000,35.045
16939,4.181,0.000,3.335,0.000,12.972,0.000,0.000,35.079
16967,4.181,0.000,3.335,0.000,12.972,0.000,0.000,35.152
16995,4.181,0.000,3.335,0.000,12.972,0.000,0.000,35.142
17023,4.181,0.000,3.335,0.000,12.972,0.000,0.000,35.087
17051,4.181,0.000,3.335,0.000,12.972,0.000,0.000,35.086
17079,4.181,0.000,3.335,0.000,12.972,0.000,0.000,35.044
17107,4.181,0.000,3.335,0.000,12.972,0.000,0.000,35.045
17135,4.181,0.000,3.335,0.000,12.972,0.000,0.000,35.070
17163,4.181,0.000,3.335,0.000,12.972,0.000,0.000,35.088
17191,4.181,0.000,3.335,0.000,12.972,0.000,0.000,35.069
17219,4.181,0.000,3.335,0.000,12.972,0.000,0.000,35.069
17247,4.181,0.000,3.335,0.000,12.972,0.000,0.000,35.067
17275,4.181,0.000,3.335,0.000,12.972,0.000,0.000,35.087
17303,4.181,0.000,3.335,0.000,12.972,0.000,0.000,35.069
17331,4.181,0.000,3.335,0.000,12.972,0.000,0.000,35.079
17359,4.181,0.000,3.335,0.000,12.972,0.000,0.000,35.057
17387,4.181,0.000,3.335,0.000,12.972,0.000,0.000,35.078
17415,4.181,0.000,3.335,0.000,12.972,0.000,0.000,35.082
17443,4.181,0.000,3.335,0.000,12.972,0.000,0.000,35.081
17471,4.181,0.000,3.335,0.000,12.972,0.000,0.000,35.121
17499,4.181,0.000,3.335,0.000,12.972,0.000,0.000,35.080
17527,3.849,-3.350,3.335,0.020,12.972,0.079,-0.001,35.150
17555,3.826,-3.350,3.335,0.047,12.972,0.179,0.000,35.312
17583,3.811,-3.350,3.335,0.073,12.972,0.279,-0.001,35.470
17611,3.800,-3.350,3.335,0.099,12.972,0.378,0.000,35.639
17639,3.790,-3.350,3.335,0.125,12.972,0.477,0.000,35.804
17667,3.781,-3.350,3.335,0.151,12.972,0.575,0.000,35.944
17695,3.773,-3.350,3.335,0.177,12.972,0.674,0.000,36.136
17723,3.764,-3.350,3.335,0.203,12.972,0.772,0.000,36.233
17751,3.756,-3.350,3.335,0.229,12.972,0.870,0.000,36.298
17779,3.748,-3.350,3.335,0.255,12.972,0.968,0.000,36.457
17807,3.739,-3.350,3.335,0.281,12.972,1.065,0.000,36.560
17835,3.730,-3.350,3.335,0.307,12.972,1.163,0.000,36.648
17863,3.721,-3.350,3.335,0.333,12.972,1.260,0.000,36.734
17891,3.712,-3.350,3.335,0.359,12.972,1.356,0.000,36.805
17919,3.703,-3.350,3.335,0.385,12.972,1.453,0.000,36.850
17947,3.693,-3.350,3.335,0.411,12.972,1.549,0.000,36.915
17975,3.684,-3.350,3.335,0.437,12.972,1.646,0.000,36.980
18003,3.674,-3.350,3.335,0.463,12.972,1.741,-0.001,37.055
18031,3.664,-3.350,3.335,0.490,12.972,1.837,0.000,37.037
18059,3.655,-3.350,3.335,0.516,12.972,1.932,0.000,37.091
18087,3.645,-3.350,3.335,0.542,12.972,2.028,0.000,37.166
18115,3.636,-3.350,3.335,0.568,12.972,2.122,0.000,37.201
18143,3.627,-3.350,3.335,0.594,12.972,2.217,0.000,37.210
18171,3.618,-3.350,3.335,0.620,12.972,2.311,0.000,37.189
18199,3.609,-3.350,3.335,0.646,12.972,2.406,0.000,37.234
18227,3.601,-3.350,3.335,0.672,12.972,2.500,0.000,37.227
18255,3.592,-3.350,3.335,0.698,12.972,2.593,0.000,37.281
18283,3.584,-3.350,3.335,0.724,12.972,2.687,0.000,37.313
18311,3.576,-3.350,3.335,0.750,12.972,2.780,0.000,37.328
18339,3.568,-3.350,3.335,0.776,12.972,2.873,0.000,37.324
18367,3.560,-3.350,3.335,0.802,12.972,2.966,0.000,37.371
18395,3.553,-3.350,3.335,0.828,12.972,3.059,0.000,37.376
18423,3.545,-3.350,3.335,0.854,12.972,3.151,0.000,37.406
18451,3.538,-3.350,3.335,0.880,12.972,3.243,0.000,37.411
18479,3.530,-3.350,3.335,0.906,12.972,3.336,0.000,37.477
18507,3.522,-3.350,3.335,0.933,12.972,3.427,0.000,37.485
18535,3.515,-3.350,3.335,0.959,12.972,3.519,0.000,37.468
18563,3.507,-3.350,3.335,0.985,12.972,3.611,0.000,37.553
18591,3.499,-3.350,3.335,1.011,12.972,3.702,0.000,37.534
18619,3.491,-3.350,3.335,1.037,12.972,3.793,0.000,37.581
18647,3.483,-3.350,3.335,1.063,12.972,3.884,0.000,37.601
18675,3.475,-3.350,3.335,1.089,12.972,3.975,-0.001,37.598
18703,3.467,-3.350,3.335,1.115,12.972,4.065,0.000,37.617
18731,3.459,-3.350,3.335,1.141,12.972,4.155,0.000,37.641
18759,3.451,-3.350,3.335,1.167,12.972,4.245,0.000,37.696
18787,3.443,-3.350,3.335,1.193,12.972,4.335,0.000,37.681
18815,3.434,-3.350,3.335,1.219,12.972,4.425,0.000,37.747
18843,3.426,-3.350,3.335,1.245,12.972,4.514,0.000,37.725
18871,3.418,-3.350,3.335,1.271,12.972,4.603,0.000,37.770
18899,3.409,-3.350,3.335,1.297,12.972,4.692,0.000,37.741
18927,3.401,-3.350,3.335,1.323,12.972,4.781,0.000,37.812
18955,3.393,-3.350,3.335,1.349,12.972,4.869,0.000,37.811
18983,3.384,-3.350,3.335,1.376,12.972,4.958,0.000,37.787
19011,3.376,-3.350,3.335,1.402,12.972,5.046,0.000,37.794
19039,3.368,-3.350,3.335,1.428,12.972,5.134,0.000,37.840
19067,3.360,-3.350,3.335,1.454,12.972,5.221,0.000,37.861
19095,3.352,-3.350,3.335,1.480,12.972,5.309,0.000,37.885
19123,3.344,-3.350,3.335,1.506,12.972,5.396,0.000,37.885
19151,3.337,-3.350,3.335,1.532,12.972,5.483,0.000,37.932
19179,3.329,-3.350,3.335,1.558,12.972,5.570,0.000,37.979
19207,3.322,-3.350,3.335,1.584,12.972,5.657,0.000,37.951
19235,3.315,-3.350,3.335,1.610,12.972,5.743,0.000,37.988
19263,3.308,-3.350,3.335,1.636,12.972,5.829,0.000,38.017
19291,3.301,-3.350,3.335,1.662,12.972,5.915,0.000,38.019
19319,3.294,-3.350,3.335,1.688,12.972,6.001,0.000,37.985
19347,3.287,-3.350,3.335,1.714,12.972,6.087,0.000,38.055
19375,3.280,-3.350,3.335,1.740,12.972,6.173,0.000,38.088
19403,3.274,-3.350,3.335,1.766,12.972,6.258,0.000,38.091
19431,3.267,-3.350,3.335,1.792,12.972,6.343,0.000,38.130
19459,3.261,-3.350,3.335,1.819,12.972,6.428,0.000,38.146
19487,3.255,-3.350,3.335,1.845,12.972,6.513,0.000,38.178
19515,3.249,-3.350,3.335,1.871,12.972,6.598,0.000,38.208
19543,3.243,-3.350,3.335,1.897,12.972,6.683,0.000,38.260
19571,3.237,-3.350,3.335,1.923,12.972,6.767,0.000,38.254
19599,3.231,-3.350,3.335,1.949,12.972,6.851,0.000,38.304
19627,3.225,-3.350,3.335,1.975,12.972,6.935,0.000,38.272
19655,3.219,-3.350,3.335,2.001,12.972,7.019,0.000,38.323
19683,3.214,-3.350,3.335,2.027,12.972,7.103,0.000,38.352
19711,3.208,-3.350,3.335,2.053,12.972,7.187,0.000,38.357
19739,3.203,-3.350,3.335,2.079,12.972,7.270,0.000,38.395
19767,3.197,-3.350,3.335,2.105,12.972,7.354,0.000,38.407
19795,3.191,-3.350,3.335,2.131,12.972,7.437,0.000,38.384
19823,3.185,-3.350,3.335,2.157,12.972,7.520,0.000,38.449
19851,3.180,-3.350,3.335,2.183,12.972,7.603,0.000,38.469
19879,3.174,-3.350,3.335,2.209,12.972,7.686,0.000,38.437
19907,3.168,-3.350,3.335,2.235,12.972,7.768,0.000,38.483
19935,3.161,-3.350,3.335,2.262,12.972,7.851,0.000,38.504
19963,3.155,-3.350,3.335,2.288,12.972,7.933,0.000,38.537
19991,3.148,-3.350,3.335,2.314,12.972,8.015,0.000,38.538
20019,3.141,-3.350,3.335,2.340,12.972,8.097,0.000,38.547
20047,3.134,-3.350,3.335,2.366,12.972,8.179,0.000,38.564
20075,3.127,-3.350,3.335,2.392,12.972,8.261,0.000,38.605
20103,3.120,-3.350,3.335,2.418,12.972,8.342,0.000,38.653
20131,3.112,-3.350,3.335,2.444,12.972,8.423,0.000,38.665
20159,3.104,-3.350,3.335,2.470,12.972,8.504,0.000,38.661
20187,3.096,-3.350,3.335,2.496,12.972,8.585,0.000,38.686
20215,3.088,-3.350,3.335,2.522,12.972,8.666,0.000,38.712
20243,3.079,-3.350,3.335,2.548,12.972,8.746,0.000,38.724
20271,3.070,-3.350,3.335,2.574,12.972,8.826,0.000,38.746
20299,3.061,-3.350,3.335,2.600,12.972,8.906,0.000,38.806
20327,3.051,-3.350,3.335,2.626,12.972,8.986,0.000,38.784
20355,3.042,-3.350,3.335,2.652,12.972,9.065,-0.001,38.863
20383,3.032,-3.350,3.335,2.678,12.972,9.144,0.000,38.843
20411,3.021,-3.350,3.335,2.705,12.972,9.223,0.000,38.858
20439,3.010,-3.350,3.335,2.731,12.972,9.301,0.000,38.867
20467,2.999,-3.350,3.335,2.757,12.972,9.380,0.000,38.956
20495,2.987,-3.350,3.335,2.783,12.972,9.458,0.000,38.969
20523,2.975,-3.350,3.335,2.809,12.972,9.535,-0.001,39.052
20551,2.961,-3.350,3.335,2.835,12.972,9.613,-0.001,39.096
20579,2.948,-3.350,3.335,2.861,12.972,9.690,0.000,39.079
20607,2.933,-3.350,3.335,2.887,12.972,9.766,-0.001,39.195
20635,2.917,-3.350,3.335,2.913,12.972,9.843,-0.001,39.267
20663,2.900,-3.350,3.335,2.939,12.972,9.918,-0.001,39.345
20691,2.881,-3.350,3.335,2.965,12.972,9.994,-0.001,39.402
20719,2.861,-3.350,3.335,2.991,12.972,10.069,-0.001,39.593
20747,2.838,-3.350,3.335,3.017,12.972,10.143,-0.001,39.667
20775,2.812,-3.350,3.335,3.043,12.972,10.216,-0.001,39.774
20803,2.783,-3.350,3.335,3.069,12.972,10.289,-0.001,39.939
20831,2.750,-3.350,3.335,3.095,12.972,10.361,-0.002,40.078
20859,2.712,-3.350,3.335,3.121,12.972,10.433,-0.001,40.266
20887,2.668,-3.350,3.335,3.148,12.972,10.503,-0.002,40.506
20915,2.616,-3.350,3.335,3.174,12.972,10.572,-0.002,40.772
20943,2.551,-3.350,3.335,3.200,12.972,10.639,-0.003,41.065
20970,3.102,0.000,3.335,3.217,12.972,10.682,0.006,41.289
20998,3.166,0.000,3.335,3.217,12.972,10.682,0.001,40.966
21026,3.191,0.000,3.335,3.217,12.972,10.682,0.001,40.409
21054,3.205,0.000,3.335,3.217,12.972,10.682,0.000,39.969
21082,3.213,0.000,3.335,3.217,12.972,10.682,0.000,39.561
21110,3.219,0.000,3.335,3.217,12.972,10.682,0.000,39.142
21138,3.222,0.000,3.335,3.217,12.972,10.682,0.000,38.870
21166,3.225,0.000,3.335,3.217,12.972,10.682,0.000,38.526
21194,3.227,0.000,3.335,3.217,12.972,10.682,0.000,38.264
21222,3.229,0.000,3.335,3.217,12.972,10.682,0.000,37.920
21250,3.230,0.000,3.335,3.217,12.972,10.682,0.000,37.622
21278,3.232,0.000,3.335,3.217,12.972,10.682,0.000,37.416
21306,3.233,0.000,3.335,3.217,12.972,10.682,0.000,37.244
21334,3.234,0.000,3.335,3.217,12.972,10.682,0.000,37.054
21362,3.234,0.000,3.335,3.217,12.972,10.682,0.000,36.845
21390,3.235,0.000,3.335,3.217,12.972,10.682,0.000,36.691
21418,3.236,0.000,3.335,3.217,12.972,10.682,0.000,36.556
21446,3.236,0.000,3.335,3.217,12.972,10.682,0.000,36.423
21474,3.237,0.000,3.335,3.217,12.972,10.682,0.000,36.322
21502,3.237,0.000,3.335,3.217,12.972,10.682,0.000,36.186
21530,3.238,0.000,3.335,3.217,12.972,10.682,0.000,36.099
21558,3.238,0.000,3.335,3.217,12.972,10.682,0.000,36.002
21586,3.239,0.000,3.335,3.217,12.972,10.682,0.000,35.946
21614,3.239,0.000,3.335,3.217,12.972,10.682,0.000,35.861
21642,3.240,0.000,3.335,3.217,12.972,10.682,0.000,35.816
21670,3.240,0.000,3.335,3.217,12.972,10.682,0.000,35.799
21698,3.240,0.000,3.335,3.217,12.972,10.682,0.000,35.637
21726,3.241,0.000,3.335,3.217,12.972,10.682,0.000,35.645
21754,3.241,0.000,3.335,3.217,12.972,10.682,0.000,35.573
21782,3.241,0.000,3.335,3.217,12.972,10.682,0.000,35.510
21810,3.241,0.000,3.335,3.217,12.972,10.682,0.000,35.464
21838,3.242,0.000,3.335,3.217,12.972,10.682,0.000,35.441
21866,3.242,0.000,3.335,3.217,12.972,10.682,0.000,35.426
21894,3.242,0.000,3.335,3.217,12.972,10.682,0.000,35.381
21922,3.242,0.000,3.335,3.217,12.972,10.682,0.000,35.300
21950,3.243,0.000,3.335,3.217,12.972,10.682,0.000,35.344
21978,3.243,0.000,3.335,3.217,12.972,10.682,0.000,35.303
22006,3.243,0.000,3.335,3.217,12.972,10.682,0.000,35.271
22034,3.243,0.000,3.335,3.217,12.972,10.682,0.000,35.237
22062,3.243,0.000,3.335,3.217,12.972,10.682,0.000,35.245
22090,3.244,0.000,3.335,3.217,12.972,10.682,0.000,35.242
22118,3.244,0.000,3.335,3.217,12.972,10.682,0.000,35.291
22146,3.244,0.000,3.335,3.217,12.972,10.682,0.000,35.211
22174,3.244,0.000,3.335,3.217,12.972,10.682,0.000,35.196
22202,3.244,0.000,3.335,3.217,12.972,10.682,0.000,35.196
22230,3.244,0.000,3.335,3.217,12.972,10.682,0.000,35.156
22258,3.245,0.000,3.335,3.217,12.972,10.682,0.000,35.203
22286,3.245,0.000,3.335,3.217,12.972,10.682,0.000,35.139
22314,3.245,0.000,3.335,3.217,12.972,10.682,0.000,35.137
22342,3.245,0.000,3.335,3.217,12.972,10.682,0.000,35.145
22370,3.245,0.000,3.335,3.217,12.972,10.682,0.000,35.132
22398,3.246,0.000,3.335,3.217,12.972,10.682,0.000,35.176
22426,3.246,0.000,3.335,3.217,12.972,10.682,0.000,35.161
22454,3.246,0.000,3.335,3.217,12.972,10.682,0.000,35.079
22482,3.246,0.000,3.335,3.217,12.972,10.682,0.000,35.167
22510,3.246,0.000,3.335,3.217,12.972,10.682,0.000,35.086
22538,3.246,0.000,3.335,3.217,12.972,10.682,0.000,35.104
22566,3.246,0.000,3.335,3.217,12.972,10.682,0.000,35.131
22594,3.246,0.000,3.335,3.217,12.972,10.682,0.000,35.100
22622,3.246,0.000,3.335,3.217,12.972,10.682,0.000,35.113
22650,3.246,0.000,3.335,3.217,12.972,10.682,0.000,35.099
22678,3.247,0.000,3.335,3.217,12.972,10.682,0.000,35.117
22706,3.247,0.000,3.335,3.217,12.972,10.682,0.000,35.098
22734,3.247,0.000,3.335,3.217,12.972,10.682,0.000,35.103
22762,3.247,0.000,3.335,3.217,12.972,10.682,0.000,35.079
22790,3.247,0.000,3.335,3.217,12.972,10.682,0.000,35.125
22818,3.247,0.000,3.335,3.217,12.972,10.682,0.000,35.082
22846,3.247,0.000,3.335,3.217,12.972,10.682,0.000,35.060
22874,3.247,0.000,3.335,3.217,12.972,10.682,0.000,35.076
22902,3.248,0.000,3.335,3.217,12.972,10.682,0.000,35.112
22930,3.248,0.000,3.335,3.217,12.972,10.682,0.000,35.106
22958,3.248,0.000,3.335,3.217,12.972,10.682,0.000,35.095
22986,3.248,0.000,3.335,3.217,12.972,10.682,0.000,35.099
23014,3.248,0.000,3.335,3.217,12.972,10.682,0.000,35.106
23042,3.248,0.000,3.335,3.217,12.972,10.682,0.000,35.120
23070,3.248,0.000,3.335,3.217,12.972,10.682,0.000,35.082
23098,3.248,0.000,3.335,3.217,12.972,10.682,0.000,35.091
23126,3.248,0.000,3.335,3.217,12.972,10.682,0.000,35.076
23154,3.249,0.000,3.335,3.217,12.972,10.682,0.000,35.092
23182,3.249,0.000,3.335,3.217,12.972,10.682,0.000,35.103
23210,3.249,0.000,3.335,3.217,12.972,10.682,0.000,35.112
23238,3.249,0.000,3.335,3.217,12.972,10.682,0.000,35.114
23266,3.249,0.000,3.335,3.217,12.972,10.682,0.000,35.075
23294,3.249,0.000,3.335,3.217,12.972,10.682,0.000,35.109
23322,3.249,0.000,3.335,3.217,12.972,10.682,0.000,35.093
23350,3.249,0.000,3.335,3.217,12.972,10.682,0.000,35.099
23378,3.249,0.000,3.335,3.217,12.972,10.682,0.000,35.105
23406,3.249,0.000,3.335,3.217,12.972,10.682,0.000,35.085
23434,3.249,0.000,3.335,3.217,12.972,10.682,0.000,35.067
23462,3.249,0.000,3.335,3.217,12.972,10.682,0.000,35.097
23490,3.250,0.000,3.335,3.217,12.972,10.682,0.000,35.059
23518,3.249,0.000,3.335,3.217,12.972,10.682,0.000,35.070
23546,3.250,0.000,3.335,3.217,12.972,10.682,0.000,35.058
23574,3.250,0.000,3.335,3.217,12.972,10.682,0.000,35.044
23602,3.250,0.000,3.335,3.217,12.972,10.682,0.000,35.087
23630,3.250,0.000,3.335,3.217,12.972,10.682,0.000,35.096
23658,3.250,0.000,3.335,3.217,12.972,10.682,0.000,35.044
23686,3.250,0.000,3.335,3.217,12.972,10.682,0.000,35.077
23714,3.250,0.000,3.335,3.217,12.972,10.682,0.000,35.040
23742,3.250,0.000,3.335,3.217,12.972,10.682,0.000,35.095
23770,3.250,0.000,3.335,3.217,12.972,10.682,0.000,35.050
23798,3.251,0.000,3.335,3.217,12.972,10.682,0.000,35.078
23826,3.251,0.000,3.335,3.217,12.972,10.682,0.000,35.074
23854,3.251,0.000,3.335,3.217,12.972,10.682,0.000,35.019
23882,3.251,0.000,3.335,3.217,12.972,10.682,0.000,35.101
23910,3.251,0.000,3.335,3.217,12.972,10.682,0.000,35.015
23938,3.251,0.000,3.335,3.217,12.972,10.682,0.000,35.051
23966,3.251,0.000,3.335,3.217,12.972,10.682,0.000,35.093
23994,3.251,0.000,3.335,3.217,12.972,10.682,0.000,35.074
24022,3.251,0.000,3.335,3.217,12.972,10.682,0.000,35.080
24050,3.251,0.000,3.335,3.217,12.972,10.682,0.000,35.129
24078,3.251,0.000,3.335,3.217,12.972,10.682,0.000,35.036
24106,3.251,0.000,3.335,3.217,12.972,10.682,0.000,35.077
24134,3.251,0.000,3.335,3.217,12.972,10.682,0.000,35.130
24162,3.251,0.000,3.335,3.217,12.972,10.682,0.000,35.097
24190,3.251,0.000,3.335,3.217,12.972,10.682,0.000,35.045
24218,3.251,0.000,3.335,3.217,12.972,10.682,0.000,35.090
24246,3.252,0.000,3.335,3.217,12.972,10.682,0.000,35.091
24274,3.252,0.000,3.335,3.217,12.972,10.682,0.000,35.050
24302,3.252,0.000,3.335,3.217,12.972,10.682,0.000,35.045
24330,3.252,0.000,3.335,3.217,12.972,10.682,0.000,35.054
24358,3.252,0.000,3.335,3.217,12.972,10.682,0.000,35.058
24386,3.252,0.000,3.335,3.217,12.972,10.682,0.000,35.080
24414,3.252,0.000,3.335,3.217,12.972,10.682,0.000,35.033
24442,3.252,0.000,3.335,3.217,12.972,10.682,0.000,35.061
24470,3.252,0.000,3.335,3.217,12.972,10.682,0.000,35.071
24498,3.252,0.000,3.335,3.217,12.972,10.682,0.000,35.060
24526,3.252,0.000,3.335,3.217,12.972,10.682,0.000,35.041
24554,3.252,0.000,3.335,3.217,12.972,10.682,0.000,35.009
24561,3.252,0.000,3.335,3.217,12.972,10.682,0.000,35.051