File: data/T35/1C/2.csv
time_s,voltage_v,current_a,chargecapacity_ah,dischargecapacity_ah,charge_energy_wh,discharge_energy_wh,voltagedot_v_per_s,temp_degc
1,2.992,0.000,0.000,0.000,0.000,0.000,0.000,34.630
28,2.992,0.000,0.000,0.000,0.000,0.000,0.000,34.633
55,2.992,0.000,0.000,0.000,0.000,0.000,0.000,34.631
82,2.992,0.000,0.000,0.000,0.000,0.000,0.000,34.648
109,2.992,0.000,0.000,0.000,0.000,0.000,0.000,34.636
136,2.992,0.000,0.000,0.000,0.000,0.000,0.000,34.632
163,2.992,0.000,0.000,0.000,0.000,0.000,0.000,34.639
190,2.993,0.000,0.000,0.000,0.000,0.000,0.000,34.668
217,2.993,0.000,0.000,0.000,0.000,0.000,0.000,34.631
244,2.993,0.000,0.000,0.000,0.000,0.000,0.000,34.630
271,2.993,0.000,0.000,0.000,0.000,0.000,0.000,34.643
298,2.993,0.000,0.000,0.000,0.000,0.000,0.000,34.641
325,2.993,0.000,0.000,0.000,0.000,0.000,0.000,34.643
352,2.993,0.000,0.000,0.000,0.000,0.000,0.000,34.635
379,2.993,0.000,0.000,0.000,0.000,0.000,0.000,34.637
406,2.993,0.000,0.000,0.000,0.000,0.000,0.000,34.680
433,2.993,0.000,0.000,0.000,0.000,0.000,0.000,34.658
460,2.993,0.000,0.000,0.000,0.000,0.000,0.000,34.692
487,2.993,0.000,0.000,0.000,0.000,0.000,0.000,34.676
514,2.993,0.000,0.000,0.000,0.000,0.000,0.000,34.648
541,2.993,0.000,0.000,0.000,0.000,0.000,0.000,34.644
568,2.993,0.000,0.000,0.000,0.000,0.000,0.000,34.656
595,2.993,0.000,0.000,0.000,0.000,0.000,0.000,34.681
622,2.993,0.000,0.000,0.000,0.000,0.000,0.000,34.680
649,2.994,0.000,0.000,0.000,0.000,0.000,0.000,34.650
676,2.993,0.000,0.000,0.000,0.000,0.000,0.000,34.641
703,2.993,0.000,0.000,0.000,0.000,0.000,0.000,34.644
730,2.994,0.000,0.000,0.000,0.000,0.000,0.000,34.637
757,2.994,0.000,0.000,0.000,0.000,0.000,0.000,34.631
784,2.994,0.000,0.000,0.000,0.000,0.000,0.000,34.629
811,2.994,0.000,0.000,0.000,0.000,0.000,0.000,34.656
838,2.994,0.000,0.000,0.000,0.000,0.000,0.000,34.665
865,2.994,0.000,0.000,0.000,0.000,0.000,0.000,34.649
892,2.994,0.000,0.000,0.000,0.000,0.000,0.000,34.616
919,2.994,0.000,0.000,0.000,0.000,0.000,0.000,34.640
946,2.994,0.000,0.000,0.000,0.000,0.000,0.000,34.655
973,2.994,0.000,0.000,0.000,0.000,0.000,0.000,34.684
1000,2.994,0.000,0.000,0.000,0.000,0.000,0.000,34.663
1027,2.994,0.000,0.000,0.000,0.000,0.000,0.000,34.675
1054,2.994,0.000,0.000,0.000,0.000,0.000,0.000,34.624
1081,2.994,0.000,0.000,0.000,0.000,0.000,0.000,34.632
1108,2.994,0.000,0.000,0.000,0.000,0.000,0.000,34.651
1135,2.994,0.000,0.000,0.000,0.000,0.000,0.000,34.652
1162,2.994,0.000,0.000,0.000,0.000,0.000,0.000,34.648
1189,2.994,0.000,0.000,0.000,0.000,0.000,0.000,34.664
1216,2.995,0.000,0.000,0.000,0.000,0.000,0.000,34.654
1243,2.995,0.000,0.000,0.000,0.000,0.000,0.000,34.667
1270,2.994,0.000,0.000,0.000,0.000,0.000,0.000,34.675
1297,2.995,0.000,0.000,0.000,0.000,0.000,0.000,34.629
1324,2.995,0.000,0.000,0.000,0.000,0.000,0.000,34.648
1351,2.995,0.000,0.000,0.000,0.000,0.000,0.000,34.647
1378,2.995,0.000,0.000,0.000,0.000,0.000,0.000,34.664
1405,2.995,0.000,0.000,0.000,0.000,0.000,0.000,34.647
1432,2.995,0.000,0.000,0.000,0.000,0.000,0.000,34.628
1459,2.995,0.000,0.000,0.000,0.000,0.000,0.000,34.622
1486,2.995,0.000,0.000,0.000,0.000,0.000,0.000,34.644
1513,2.995,0.000,0.000,0.000,0.000,0.000,0.000,34.625
1540,2.995,0.000,0.000,0.000,0.000,0.000,0.000,34.631
1567,2.995,0.000,0.000,0.000,0.000,0.000,0.000,34.645
1594,2.995,0.000,0.000,0.000,0.000,0.000,0.000,34.620
1621,2.995,0.000,0.000,0.000,0.000,0.000,0.000,34.645
1648,2.995,0.000,0.000,0.000,0.000,0.000,0.000,34.657
1675,2.995,0.000,0.000,0.000,0.000,0.000,0.000,34.593
1702,2.995,0.000,0.000,0.000,0.000,0.000,0.000,34.631
1729,2.995,0.000,0.000,0.000,0.000,0.000,0.000,34.646
1756,2.995,0.000,0.000,0.000,0.000,0.000,0.000,34.623
1783,2.995,0.000,0.000,0.000,0.000,0.000,0.000,34.648
1810,2.995,0.000,0.000,0.000,0.000,0.000,0.000,34.667
1837,2.995,0.000,0.000,0.000,0.000,0.000,0.000,34.676
1864,2.996,0.000,0.000,0.000,0.000,0.000,0.000,34.646
1891,2.996,0.000,0.000,0.000,0.000,0.000,0.000,34.678
1918,2.996,0.000,0.000,0.000,0.000,0.000,0.000,34.652
1945,2.996,0.000,0.000,0.000,0.000,0.000,0.000,34.671
1972,2.996,0.000,0.000,0.000,0.000,0.000,0.000,34.705
1999,2.996,0.000,0.000,0.000,0.000,0.000,0.000,34.631
2026,2.996,0.000,0.000,0.000,0.000,0.000,0.000,34.646
2053,2.996,0.000,0.000,0.000,0.000,0.000,0.000,34.661
2080,2.996,0.000,0.000,0.000,0.000,0.000,0.000,34.644
2107,2.996,0.000,0.000,0.000,0.000,0.000,0.000,34.656
2134,2.996,0.000,0.000,0.000,0.000,0.000,0.000,34.663
2161,2.996,0.000,0.000,0.000,0.000,0.000,0.000,34.634
2188,2.996,0.000,0.000,0.000,0.000,0.000,0.000,34.662
2215,2.996,0.000,0.000,0.000,0.000,0.000,0.000,34.637
2242,2.996,0.000,0.000,0.000,0.000,0.000,0.000,34.665
2269,2.996,0.000,0.000,0.000,0.000,0.000,0.000,34.658
2296,2.996,0.000,0.000,0.000,0.000,0.000,0.000,34.640
2323,2.996,0.000,0.000,0.000,0.000,0.000,0.000,34.641
2350,2.996,0.000,0.000,0.000,0.000,0.000,0.000,34.664
2377,2.996,0.000,0.000,0.000,0.000,0.000,0.000,34.647
2404,2.997,0.000,0.000,0.000,0.000,0.000,0.000,34.670
2431,2.997,0.000,0.000,0.000,0.000,0.000,0.000,34.647
2458,2.997,0.000,0.000,0.000,0.000,0.000,0.000,34.652
2485,2.997,0.000,0.000,0.000,0.000,0.000,0.000,34.668
2512,2.997,0.000,0.000,0.000,0.000,0.000,0.000,34.609
2539,2.997,0.000,0.000,0.000,0.000,0.000,0.000,34.664
2566,2.997,0.000,0.000,0.000,0.000,0.000,0.000,34.621
2593,2.997,0.000,0.000,0.000,0.000,0.000,0.000,34.646
2620,2.997,0.000,0.000,0.000,0.000,0.000,0.000,34.682
2647,2.997,0.000,0.000,0.000,0.000,0.000,0.000,34.614
2674,2.997,0.000,0.000,0.000,0.000,0.000,0.000,34.643
2701,2.997,0.000,0.000,0.000,0.000,0.000,0.000,34.671
2728,2.997,0.000,0.000,0.000,0.000,0.000,0.000,34.610
2755,2.997,0.000,0.000,0.000,0.000,0.000,0.000,34.685
2782,2.997,0.000,0.000,0.000,0.000,0.000,0.000,34.682
2809,2.997,0.000,0.000,0.000,0.000,0.000,0.000,34.675
2836,2.997,0.000,0.000,0.000,0.000,0.000,0.000,34.644
2863,2.997,0.000,0.000,0.000,0.000,0.000,0.000,34.650
2890,2.997,0.000,0.000,0.000,0.000,0.000,0.000,34.658
2917,2.997,0.000,0.000,0.000,0.000,0.000,0.000,34.622
2944,2.997,0.000,0.000,0.000,0.000,0.000,0.000,34.650
2971,2.998,0.000,0.000,0.000,0.000,0.000,0.000,34.640
2998,2.997,0.000,0.000,0.000,0.000,0.000,0.000,34.622
3025,2.998,0.000,0.000,0.000,0.000,0.000,0.000,34.663
3052,2.998,0.000,0.000,0.000,0.000,0.000,0.000,34.634
3079,2.998,0.000,0.000,0.000,0.000,0.000,0.000,34.680
3106,2.997,0.000,0.000,0.000,0.000,0.000,0.000,34.617
3133,2.998,0.000,0.000,0.000,0.000,0.000,0.000,34.652
3160,2.998,0.000,0.000,0.000,0.000,0.000,0.000,34.647
3187,2.998,0.000,0.000,0.000,0.000,0.000,0.000,34.635
3214,2.998,0.000,0.000,0.000,0.000,0.000,0.000,34.633
3241,2.998,0.000,0.000,0.000,0.000,0.000,0.000,34.624
3268,2.998,0.000,0.000,0.000,0.000,0.000,0.000,34.649
3295,2.998,0.000,0.000,0.000,0.000,0.000,0.000,34.637
3322,2.998,0.000,0.000,0.000,0.000,0.000,0.000,34.615
3349,2.998,0.000,0.000,0.000,0.000,0.000,0.000,34.701
3376,2.998,0.000,0.000,0.000,0.000,0.000,0.000,34.625
3403,2.998,0.000,0.000,0.000,0.000,0.000,0.000,34.629
3430,2.998,0.000,0.000,0.000,0.000,0.000,0.000,34.637
3457,2.998,0.000,0.000,0.000,0.000,0.000,0.000,34.678
3484,2.998,0.000,0.000,0.000,0.000,0.000,0.000,34.647
3511,2.998,0.000,0.000,0.000,0.000,0.000,0.000,34.644
3538,2.998,0.000,0.000,0.000,0.000,0.000,0.000,34.678
3565,2.998,0.000,0.000,0.000,0.000,0.000,0.000,34.683
3592,2.998,0.000,0.000,0.000,0.000,0.000,0.000,34.699
3618,3.237,1.625,0.008,0.000,0.026,0.000,0.003,34.634
3645,3.299,1.625,0.020,0.000,0.066,0.000,0.002,34.629
3672,3.344,1.625,0.033,0.000,0.106,0.000,0.002,34.654
3699,3.381,1.625,0.045,0.000,0.147,0.000,0.001,34.656
3726,3.412,1.625,0.057,0.000,0.189,0.000,0.001,34.659
3753,3.438,1.625,0.069,0.000,0.231,0.000,0.001,34.686
3780,3.461,1.625,0.081,0.000,0.273,0.000,0.001,34.721
3807,3.480,1.625,0.093,0.000,0.315,0.000,0.001,34.744
3834,3.496,1.625,0.106,0.000,0.357,0.000,0.000,34.757
3861,3.506,1.625,0.118,0.000,0.400,0.000,0.000,34.829
3888,3.510,1.625,0.130,0.000,0.443,0.000,0.000,34.877
3915,3.512,1.625,0.142,0.000,0.486,0.000,0.000,34.906
3942,3.515,1.625,0.154,0.000,0.529,0.000,0.000,34.975
3969,3.517,1.625,0.167,0.000,0.571,0.000,0.000,35.051
3996,3.519,1.625,0.179,0.000,0.614,0.000,0.000,35.085
4023,3.521,1.625,0.191,0.000,0.657,0.000,0.000,35.192
4050,3.524,1.625,0.203,0.000,0.700,0.000,0.000,35.250
4077,3.527,1.625,0.215,0.000,0.743,0.000,0.000,35.319
4104,3.529,1.625,0.228,0.000,0.786,0.000,0.000,35.268
4131,3.532,1.625,0.240,0.000,0.829,0.000,0.000,35.373
4158,3.535,1.625,0.252,0.000,0.872,0.000,0.000,35.397
4185,3.537,1.625,0.264,0.000,0.915,0.000,0.000,35.431
4212,3.541,1.625,0.276,0.000,0.958,0.000,0.000,35.446
4239,3.543,1.625,0.289,0.000,1.002,0.000,0.000,35.482
4266,3.546,1.625,0.301,0.000,1.045,0.000,0.000,35.526
4293,3.549,1.625,0.313,0.000,1.088,0.000,0.000,35.558
4320,3.552,1.625,0.325,0.000,1.131,0.000,0.000,35.575
4347,3.554,1.625,0.337,0.000,1.175,0.000,0.000,35.627
4374,3.557,1.625,0.349,0.000,1.218,0.000,0.000,35.629
4401,3.560,1.625,0.362,0.000,1.261,0.000,0.000,35.592
4428,3.563,1.625,0.374,0.000,1.305,0.000,0.000,35.674
4455,3.566,1.625,0.386,0.000,1.348,0.000,0.000,35.656
4482,3.569,1.625,0.398,0.000,1.392,0.000,0.000,35.666
4509,3.572,1.625,0.410,0.000,1.435,0.000,0.000,35.627
4536,3.575,1.625,0.423,0.000,1.479,0.000,0.000,35.704
4563,3.578,1.625,0.435,0.000,1.522,0.000,0.000,35.691
4590,3.581,1.625,0.447,0.000,1.566,0.000,0.000,35.705
4617,3.584,1.625,0.459,0.000,1.610,0.000,0.000,35.719
4644,3.587,1.625,0.471,0.000,1.653,0.000,0.000,35.658
4671,3.591,1.625,0.484,0.000,1.697,0.000,0.000,35.664
4698,3.594,1.625,0.496,0.000,1.741,0.000,0.000,35.698
4725,3.598,1.625,0.508,0.000,1.785,0.000,0.000,35.650
4752,3.601,1.625,0.520,0.000,1.829,0.000,0.000,35.622
4779,3.604,1.625,0.532,0.000,1.873,0.000,0.000,35.652
4806,3.608,1.625,0.544,0.000,1.916,0.000,0.000,35.641
4833,3.611,1.625,0.557,0.000,1.960,0.000,0.000,35.616
4860,3.615,1.625,0.569,0.000,2.004,0.000,0.000,35.559
4887,3.617,1.625,0.581,0.000,2.049,0.000,0.000,35.625
4914,3.621,1.625,0.593,0.000,2.093,0.000,0.000,35.543
4941,3.623,1.625,0.605,0.000,2.137,0.000,0.000,35.576
4968,3.626,1.625,0.618,0.000,2.181,0.000,0.000,35.611
4995,3.629,1.625,0.630,0.000,2.225,0.000,0.000,35.602
5022,3.631,1.625,0.642,0.000,2.269,0.000,0.000,35.563
5049,3.634,1.625,0.654,0.000,2.314,0.000,0.000,35.559
5076,3.636,1.625,0.666,0.000,2.358,0.000,0.000,35.518
5103,3.638,1.625,0.679,0.000,2.402,0.000,0.000,35.562
5130,3.641,1.625,0.691,0.000,2.447,0.000,0.000,35.539
5157,3.643,1.625,0.703,0.000,2.491,0.000,0.000,35.553
5184,3.645,1.625,0.715,0.000,2.536,0.000,0.000,35.539
5211,3.647,1.625,0.727,0.000,2.580,0.000,0.000,35.528
5238,3.649,1.625,0.739,0.000,2.624,0.000,0.000,35.503
5265,3.652,1.625,0.752,0.000,2.669,0.000,0.000,35.515
5292,3.654,1.625,0.764,0.000,2.713,0.000,0.000,35.544
5319,3.656,1.625,0.776,0.000,2.758,0.000,0.000,35.528
5346,3.659,1.625,0.788,0.000,2.803,0.000,0.000,35.530
5373,3.661,1.625,0.800,0.000,2.847,0.000,0.000,35.574
5400,3.663,1.625,0.813,0.000,2.892,0.000,0.000,35.522
5427,3.666,1.625,0.825,0.000,2.936,0.000,0.000,35.542
5454,3.668,1.625,0.837,0.000,2.981,0.000,0.000,35.550
5481,3.671,1.625,0.849,0.000,3.026,0.000,0.000,35.528
5508,3.673,1.625,0.861,0.000,3.071,0.000,0.000,35.549
5535,3.676,1.625,0.874,0.000,3.115,0.000,0.000,35.563
5562,3.678,1.625,0.886,0.000,3.160,0.000,0.000,35.560
5589,3.681,1.625,0.898,0.000,3.205,0.000,0.000,35.536
5616,3.683,1.625,0.910,0.000,3.250,0.000,0.000,35.610
5643,3.686,1.625,0.922,0.000,3.295,0.000,0.000,35.576
5670,3.688,1.625,0.934,0.000,3.340,0.000,0.000,35.576
5697,3.691,1.625,0.947,0.000,3.385,0.000,0.000,35.604
5724,3.693,1.625,0.959,0.000,3.430,0.000,0.000,35.565
5751,3.696,1.625,0.971,0.000,3.475,0.000,0.000,35.606
5778,3.698,1.625,0.983,0.000,3.520,0.000,0.000,35.627
5805,3.701,1.625,0.995,0.000,3.565,0.000,0.000,35.598
5832,3.703,1.625,1.008,0.000,3.610,0.000,0.000,35.646
5859,3.706,1.625,1.020,0.000,3.655,0.000,0.000,35.627
5886,3.708,1.625,1.032,0.000,3.700,0.000,0.000,35.658
5913,3.711,1.625,1.044,0.000,3.746,0.000,0.000,35.652
5940,3.713,1.625,1.056,0.000,3.791,0.000,0.000,35.703
5967,3.716,1.625,1.069,0.000,3.836,0.000,0.000,35.682
5994,3.718,1.625,1.081,0.000,3.881,0.000,0.000,35.678
6021,3.720,1.625,1.093,0.000,3.927,0.000,0.000,35.729
6048,3.723,1.625,1.105,0.000,3.972,0.000,0.000,35.728
6075,3.725,1.625,1.117,0.000,4.018,0.000,0.000,35.767
6102,3.728,1.625,1.129,0.000,4.063,0.000,0.000,35.751
6129,3.730,1.625,1.142,0.000,4.108,0.000,0.000,35.781
6156,3.733,1.625,1.154,0.000,4.154,0.000,0.000,35.733
6183,3.735,1.625,1.166,0.000,4.199,0.000,0.000,35.763
6210,3.737,1.625,1.178,0.000,4.245,0.000,0.000,35.712
6237,3.740,1.625,1.190,0.000,4.291,0.000,0.000,35.791
6264,3.742,1.625,1.203,0.000,4.336,0.000,0.000,35.820
6291,3.744,1.625,1.215,0.000,4.382,0.000,0.000,35.800
6318,3.746,1.625,1.227,0.000,4.427,0.000,0.000,35.781
6345,3.749,1.625,1.239,0.000,4.473,0.000,0.000,35.805
6372,3.751,1.625,1.251,0.000,4.519,0.000,0.000,35.786
6399,3.753,1.625,1.264,0.000,4.564,0.000,0.000,35.779
6426,3.755,1.625,1.276,0.000,4.610,0.000,0.000,35.816
6453,3.757,1.625,1.288,0.000,4.656,0.000,0.000,35.814
6480,3.760,1.625,1.300,0.000,4.702,0.000,0.000,35.812
6507,3.762,1.625,1.312,0.000,4.748,0.000,0.000,35.852
6534,3.764,1.625,1.325,0.000,4.794,0.000,0.000,35.786
6561,3.766,1.625,1.337,0.000,4.839,0.000,0.000,35.784
6588,3.769,1.625,1.349,0.000,4.885,0.000,0.000,35.851
6615,3.771,1.625,1.361,0.000,4.931,0.000,0.000,35.856
6642,3.773,1.625,1.373,0.000,4.977,0.000,0.000,35.814
6669,3.775,1.625,1.385,0.000,5.023,0.000,0.000,35.812
6696,3.778,1.625,1.398,0.000,5.069,0.000,0.000,35.837
6723,3.780,1.625,1.410,0.000,5.115,0.000,0.000,35.811
6750,3.783,1.625,1.422,0.000,5.161,0.000,0.000,35.830
6777,3.785,1.625,1.434,0.000,5.208,0.000,0.000,35.831
6804,3.787,1.625,1.446,0.000,5.254,0.000,0.000,35.877
6831,3.790,1.625,1.459,0.000,5.300,0.000,0.000,35.852
6858,3.792,1.625,1.471,0.000,5.346,0.000,0.000,35.847
6885,3.794,1.625,1.483,0.000,5.392,0.000,0.000,35.832
6912,3.797,1.625,1.495,0.000,5.439,0.000,0.000,35.857
6939,3.800,1.625,1.507,0.000,5.485,0.000,0.000,35.825
6966,3.802,1.625,1.520,0.000,5.531,0.000,0.000,35.874
6993,3.805,1.625,1.532,0.000,5.578,0.000,0.000,35.806
7020,3.808,1.625,1.544,0.000,5.624,0.000,0.000,35.835
7047,3.810,1.625,1.556,0.000,5.670,0.000,0.000,35.823
7074,3.813,1.625,1.568,0.000,5.717,0.000,0.000,35.850
7101,3.816,1.625,1.580,0.000,5.763,0.000,0.000,35.871
7128,3.818,1.625,1.593,0.000,5.810,0.000,0.000,35.910
7155,3.821,1.625,1.605,0.000,5.856,0.000,0.000,35.801
7182,3.824,1.625,1.617,0.000,5.903,0.000,0.000,35.875
7209,3.827,1.625,1.629,0.000,5.950,0.000,0.000,35.871
7236,3.830,1.625,1.641,0.000,5.996,0.000,0.000,35.876
7263,3.833,1.625,1.654,0.000,6.043,0.000,0.000,35.881
7290,3.835,1.625,1.666,0.000,6.090,0.000,0.000,35.869
7317,3.838,1.625,1.678,0.000,6.136,0.000,0.000,35.843
7344,3.841,1.625,1.690,0.000,6.183,0.000,0.000,35.853
7371,3.844,1.625,1.702,0.000,6.230,0.000,0.000,35.845
7398,3.847,1.625,1.715,0.000,6.277,0.000,0.000,35.866
7425,3.851,1.625,1.727,0.000,6.324,0.000,0.000,35.842
7452,3.854,1.625,1.739,0.000,6.371,0.000,0.000,35.845
7479,3.857,1.625,1.751,0.000,6.418,0.000,0.000,35.847
7506,3.860,1.625,1.763,0.000,6.465,0.000,0.000,35.888
7533,3.863,1.625,1.775,0.000,6.512,0.000,0.000,35.859
7560,3.867,1.625,1.788,0.000,6.559,0.000,0.000,35.899
7587,3.870,1.625,1.800,0.000,6.606,0.000,0.000,35.929
7614,3.873,1.625,1.812,0.000,6.653,0.000,0.000,35.878
7641,3.876,1.625,1.824,0.000,6.701,0.000,0.000,35.905
7668,3.880,1.625,1.836,0.000,6.748,0.000,0.000,35.881
7695,3.883,1.625,1.849,0.000,6.795,0.000,0.000,35.871
7722,3.886,1.625,1.861,0.000,6.843,0.000,0.000,35.896
7749,3.889,1.625,1.873,0.000,6.890,0.000,0.000,35.881
7776,3.893,1.625,1.885,0.000,6.937,0.000,0.000,35.871
7803,3.896,1.625,1.897,0.000,6.985,0.000,0.000,35.880
7830,3.900,1.625,1.910,0.000,7.032,0.000,0.000,35.886
7857,3.903,1.625,1.922,0.000,7.080,0.000,0.000,35.884
7884,3.906,1.625,1.934,0.000,7.127,0.000,0.000,35.918
7911,3.910,1.625,1.946,0.000,7.175,0.000,0.000,35.865
7938,3.913,1.625,1.958,0.000,7.223,0.000,0.000,35.834
7965,3.916,1.625,1.970,0.000,7.270,0.000,0.000,35.856
7992,3.920,1.625,1.983,0.000,7.318,0.000,0.000,35.943
8019,3.923,1.625,1.995,0.000,7.366,0.000,0.000,35.878
8046,3.927,1.625,2.007,0.000,7.414,0.000,0.000,35.858
8073,3.930,1.625,2.019,0.000,7.462,0.000,0.000,35.834
8100,3.934,1.625,2.031,0.000,7.510,0.000,0.000,35.874
8127,3.937,1.625,2.044,0.000,7.558,0.000,0.000,35.902
8154,3.941,1.625,2.056,0.000,7.606,0.000,0.000,35.870
8181,3.944,1.625,2.068,0.000,7.654,0.000,0.000,35.875
8208,3.947,1.625,2.080,0.000,7.702,0.000,0.000,35.826
8235,3.951,1.625,2.092,0.000,7.750,0.000,0.000,35.868
8262,3.954,1.625,2.105,0.000,7.798,0.000,0.000,35.879
8289,3.958,1.625,2.117,0.000,7.846,0.000,0.000,35.848
8316,3.961,1.625,2.129,0.000,7.895,0.000,0.000,35.855
8343,3.964,1.625,2.141,0.000,7.943,0.000,0.000,35.876
8370,3.968,1.625,2.153,0.000,7.991,0.000,0.000,35.826
8397,3.971,1.625,2.165,0.000,8.040,0.000,0.000,35.826
8424,3.974,1.625,2.178,0.000,8.088,0.000,0.000,35.840
8451,3.978,1.625,2.190,0.000,8.136,0.000,0.000,35.817
8478,3.981,1.625,2.202,0.000,8.185,0.000,0.000,35.901
8505,3.985,1.625,2.214,0.000,8.233,0.000,0.000,35.857
8532,3.988,1.625,2.226,0.000,8.282,0.000,0.000,35.816
8559,3.991,1.625,2.239,0.000,8.331,0.000,0.000,35.801
8586,3.994,1.625,2.251,0.000,8.379,0.000,0.000,35.845
8613,3.998,1.625,2.263,0.000,8.428,0.000,0.000,35.810
8640,4.001,1.625,2.275,0.000,8.477,0.000,0.000,35.805
8667,4.005,1.625,2.287,0.000,8.526,0.000,0.000,35.812
8694,4.008,1.625,2.300,0.000,8.574,0.000,0.000,35.828
8721,4.011,1.625,2.312,0.000,8.623,0.000,0.000,35.799
8748,4.015,1.625,2.324,0.000,8.672,0.000,0.000,35.756
8775,4.018,1.625,2.336,0.000,8.721,0.000,0.000,35.789
8802,4.021,1.625,2.348,0.000,8.770,0.000,0.000,35.760
8829,4.025,1.625,2.361,0.000,8.819,0.000,0.000,35.792
8856,4.028,1.625,2.373,0.000,8.868,0.000,0.000,35.823
8883,4.032,1.625,2.385,0.000,8.917,0.000,0.000,35.758
8910,4.035,1.625,2.397,0.000,8.967,0.000,0.000,35.760
8937,4.038,1.625,2.409,0.000,9.016,0.000,0.000,35.816
8964,4.042,1.625,2.421,0.000,9.065,0.000,0.000,35.817
8991,4.045,1.625,2.434,0.000,9.114,0.000,0.000,35.794
9018,4.049,1.625,2.446,0.000,9.164,0.000,0.000,35.769
9045,4.052,1.625,2.458,0.000,9.213,0.000,0.000,35.753
9072,4.056,1.625,2.470,0.000,9.262,0.000,0.000,35.749
9099,4.059,1.625,2.482,0.000,9.312,0.000,0.000,35.799
9126,4.063,1.625,2.495,0.000,9.361,0.000,0.000,35.810
9153,4.067,1.625,2.507,0.000,9.411,0.000,0.000,35.837
9180,4.071,1.625,2.519,0.000,9.460,0.000,0.000,35.838
9207,4.074,1.625,2.531,0.000,9.510,0.000,0.000,35.824
9234,4.078,1.625,2.543,0.000,9.560,0.000,0.000,35.773
9261,4.082,1.625,2.556,0.000,9.610,0.000,0.000,35.821
9288,4.086,1.625,2.568,0.000,9.659,0.000,0.000,35.862
9315,4.090,1.625,2.580,0.000,9.709,0.000,0.000,35.819
9342,4.094,1.625,2.592,0.000,9.759,0.000,0.000,35.816
9369,4.098,1.625,2.604,0.000,9.809,0.000,0.000,35.866
9396,4.102,1.625,2.616,0.000,9.859,0.000,0.000,35.843
9423,4.106,1.625,2.629,0.000,9.909,0.000,0.000,35.799
9450,4.111,1.625,2.641,0.000,9.959,0.000,0.000,35.827
9477,4.115,1.625,2.653,0.000,10.009,0.000,0.000,35.856
9504,4.119,1.625,2.665,0.000,10.059,0.000,0.000,35.844
9531,4.124,1.625,2.677,0.000,10.110,0.000,0.000,35.823
9558,4.128,1.625,2.690,0.000,10.160,0.000,0.000,35.919
9585,4.133,1.625,2.702,0.000,10.210,0.000,0.000,35.892
9612,4.138,1.625,2.714,0.000,10.261,0.000,0.000,35.874
9639,4.142,1.625,2.726,0.000,10.311,0.000,0.000,35.856
9666,4.147,1.625,2.738,0.000,10.362,0.000,0.000,35.877
9693,4.152,1.625,2.751,0.000,10.412,0.000,0.000,35.884
9720,4.157,1.625,2.763,0.000,10.463,0.000,0.000,35.861
9747,4.161,1.625,2.775,0.000,10.513,0.000,0.000,35.910
9774,4.166,1.625,2.787,0.000,10.564,0.000,0.000,35.864
9801,4.171,1.625,2.799,0.000,10.615,0.000,0.000,35.946
9828,4.176,1.625,2.811,0.000,10.666,0.000,0.000,35.939
9855,4.181,1.625,2.824,0.000,10.717,0.000,0.000,35.926
9882,4.186,1.625,2.836,0.000,10.768,0.000,0.000,35.970
9909,4.191,1.625,2.848,0.000,10.819,0.000,0.000,35.973
9936,4.196,1.625,2.860,0.000,10.870,0.000,0.000,35.954
9962,4.200,1.614,2.872,0.000,10.920,0.000,0.000,35.975
9989,4.200,1.545,2.884,0.000,10.970,0.000,0.000,35.983
10016,4.200,1.491,2.895,0.000,11.017,0.000,0.000,35.930
10043,4.200,1.443,2.906,0.000,11.064,0.000,0.000,35.943
10070,4.200,1.400,2.917,0.000,11.108,0.000,0.000,35.958
10097,4.200,1.360,2.927,0.000,11.152,0.000,0.000,35.947
10124,4.200,1.321,2.937,0.000,11.194,0.000,0.000,35.898
10151,4.200,1.286,2.947,0.000,11.235,0.000,0.000,35.870
10178,4.200,1.252,2.957,0.000,11.275,0.000,0.000,35.877
10205,4.200,1.220,2.966,0.000,11.314,0.000,0.000,35.883
10232,4.200,1.188,2.975,0.000,11.352,0.000,0.000,35.823
10259,4.200,1.158,2.984,0.000,11.389,0.000,0.000,35.810
10286,4.200,1.130,2.992,0.000,11.425,0.000,0.000,35.762
10313,4.200,1.103,3.001,0.000,11.460,0.000,0.000,35.711
10340,4.200,1.076,3.009,0.000,11.494,0.000,0.000,35.739
10367,4.200,1.051,3.017,0.000,11.528,0.000,0.000,35.671
10394,4.200,1.026,3.025,0.000,11.560,0.000,0.000,35.664
10421,4.200,1.003,3.032,0.000,11.592,0.000,0.000,35.612
10448,4.200,0.981,3.040,0.000,11.624,0.000,0.000,35.603
10475,4.200,0.959,3.047,0.000,11.654,0.000,0.000,35.530
10502,4.200,0.939,3.054,0.000,11.684,0.000,0.000,35.534
10529,4.200,0.918,3.061,0.000,11.713,0.000,0.000,35.476
10556,4.200,0.897,3.068,0.000,11.742,0.000,0.000,35.483
10583,4.200,0.878,3.074,0.000,11.770,0.000,0.000,35.483
10610,4.200,0.859,3.081,0.000,11.797,0.000,0.000,35.459
10637,4.200,0.842,3.087,0.000,11.824,0.000,0.000,35.423
10664,4.200,0.824,3.094,0.000,11.850,0.000,0.000,35.410
10691,4.200,0.806,3.100,0.000,11.876,0.000,0.000,35.387
10718,4.200,0.790,3.106,0.000,11.901,0.000,0.000,35.343
10745,4.200,0.773,3.112,0.000,11.926,0.000,0.000,35.351
10772,4.200,0.757,3.117,0.000,11.950,0.000,0.000,35.289
10799,4.200,0.741,3.123,0.000,11.973,0.000,0.000,35.282
10826,4.200,0.725,3.128,0.000,11.996,0.000,0.000,35.264
10853,4.200,0.709,3.134,0.000,12.019,0.000,0.000,35.251
10880,4.200,0.693,3.139,0.000,12.041,0.000,0.000,35.258
10907,4.200,0.679,3.144,0.000,12.063,0.000,0.000,35.208
10934,4.200,0.664,3.149,0.000,12.084,0.000,0.000,35.220
10961,4.200,0.649,3.154,0.000,12.105,0.000,0.000,35.174
10988,4.200,0.636,3.159,0.000,12.125,0.000,0.000,35.198
11015,4.200,0.622,3.164,0.000,12.145,0.000,0.000,35.163
11042,4.200,0.609,3.168,0.000,12.164,0.000,0.000,35.109
11069,4.200,0.595,3.173,0.000,12.183,0.000,0.000,35.126
11096,4.200,0.582,3.177,0.000,12.201,0.000,0.000,35.161
11123,4.200,0.568,3.182,0.000,12.219,0.000,0.000,35.125
11150,4.200,0.555,3.186,0.000,12.237,0.000,0.000,35.085
11177,4.200,0.543,3.190,0.000,12.254,0.000,0.000,35.069
11204,4.200,0.529,3.194,0.000,12.271,0.000,0.000,35.070
11231,4.200,0.517,3.198,0.000,12.288,0.000,0.000,35.087
11258,4.200,0.505,3.202,0.000,12.304,0.000,0.000,35.060
11285,4.200,0.494,3.205,0.000,12.320,0.000,0.000,35.063
11312,4.200,0.481,3.209,0.000,12.335,0.000,0.000,35.032
11339,4.200,0.469,3.213,0.000,12.350,0.000,0.000,35.074
11366,4.200,0.459,3.216,0.000,12.365,0.000,0.000,35.022
11393,4.200,0.447,3.219,0.000,12.379,0.000,0.000,34.958
11420,4.200,0.436,3.223,0.000,12.393,0.000,0.000,34.983
11447,4.200,0.425,3.226,0.000,12.406,0.000,0.000,35.026
11474,4.200,0.414,3.229,0.000,12.420,0.000,0.000,34.978
11501,4.200,0.404,3.232,0.000,12.432,0.000,0.000,34.956
11528,4.200,0.395,3.235,0.000,12.445,0.000,0.000,34.955
11555,4.200,0.384,3.238,0.000,12.457,0.000,0.000,34.896
11582,4.200,0.374,3.241,0.000,12.469,0.000,0.000,34.951
11609,4.200,0.365,3.244,0.000,12.481,0.000,0.000,34.910
11636,4.200,0.356,3.246,0.000,12.492,0.000,0.000,34.944
11663,4.200,0.346,3.249,0.000,12.503,0.000,0.000,34.918
11690,4.200,0.338,3.252,0.000,12.514,0.000,0.000,34.917
11717,4.200,0.329,3.254,0.000,12.524,0.000,0.000,34.912
11744,4.200,0.320,3.257,0.000,12.535,0.000,0.000,34.910
11771,4.200,0.311,3.259,0.000,12.545,0.000,0.000,34.838
11798,4.200,0.303,3.261,0.000,12.554,0.000,0.000,34.870
11825,4.200,0.295,3.263,0.000,12.564,0.000,0.000,34.864
11852,4.200,0.287,3.266,0.000,12.573,0.000,0.000,34.845
11879,4.200,0.280,3.268,0.000,12.582,0.000,0.000,34.862
11906,4.200,0.272,3.270,0.000,12.590,0.000,0.000,34.858
11933,4.200,0.265,3.272,0.000,12.599,0.000,0.000,34.843
11960,4.200,0.257,3.274,0.000,12.607,0.000,0.000,34.854
11987,4.200,0.250,3.276,0.000,12.615,0.000,0.000,34.832
12014,4.200,0.244,3.278,0.000,12.623,0.000,0.000,34.809
12041,4.200,0.237,3.279,0.000,12.630,0.000,0.000,34.838
12068,4.200,0.231,3.281,0.000,12.638,0.000,0.000,34.809
12095,4.200,0.224,3.283,0.000,12.645,0.000,0.000,34.777
12122,4.200,0.218,3.284,0.000,12.652,0.000,0.000,34.789
12149,4.200,0.213,3.286,0.000,12.659,0.000,0.000,34.800
12176,4.200,0.207,3.288,0.000,12.665,0.000,0.000,34.789
12203,4.200,0.201,3.289,0.000,12.672,0.000,0.000,34.821
12230,4.200,0.195,3.291,0.000,12.678,0.000,0.000,34.800
12257,4.200,0.190,3.292,0.000,12.684,0.000,0.000,34.791
12284,4.200,0.184,3.294,0.000,12.690,0.000,0.000,34.795
12311,4.200,0.180,3.295,0.000,12.696,0.000,0.000,34.762
12338,4.200,0.174,3.296,0.000,12.701,0.000,0.000,34.759
12365,4.200,0.170,3.298,0.000,12.707,0.000,0.000,34.759
12392,4.200,0.165,3.299,0.000,12.712,0.000,0.000,34.772
12419,4.200,0.161,3.300,0.000,12.717,0.000,0.000,34.734
12446,4.200,0.156,3.301,0.000,12.722,0.000,0.000,34.765
12473,4.200,0.153,3.302,0.000,12.727,0.000,0.000,34.739
12500,4.200,0.148,3.304,0.000,12.732,0.000,0.000,34.758
12527,4.200,0.145,3.305,0.000,12.736,0.000,0.000,34.760
12554,4.200,0.141,3.306,0.000,12.741,0.000,0.000,34.733
12581,4.200,0.137,3.307,0.000,12.745,0.000,0.000,34.717
12608,4.200,0.134,3.308,0.000,12.749,0.000,0.000,34.714
12635,4.200,0.129,3.309,0.000,12.754,0.000,0.000,34.716
12662,4.200,0.126,3.310,0.000,12.758,0.000,0.000,34.705
12689,4.200,0.123,3.311,0.000,12.762,0.000,0.000,34.719
12716,4.200,0.120,3.312,0.000,12.765,0.000,0.000,34.734
12743,4.200,0.117,3.312,0.000,12.769,0.000,0.000,34.728
12770,4.200,0.114,3.313,0.000,12.773,0.000,0.000,34.709
12797,4.200,0.111,3.314,0.000,12.776,0.000,0.000,34.729
12824,4.200,0.108,3.315,0.000,12.780,0.000,0.000,34.711
12851,4.200,0.105,3.316,0.000,12.783,0.000,0.000,34.696
12878,4.200,0.102,3.316,0.000,12.786,0.000,0.000,34.709
12905,4.200,0.100,3.317,0.000,12.789,0.000,0.000,34.690
12932,4.200,0.097,3.318,0.000,12.793,0.000,0.000,34.688
12959,4.200,0.094,3.319,0.000,12.796,0.000,0.000,34.686
12986,4.200,0.092,3.319,0.000,12.798,0.000,0.000,34.704
13013,4.200,0.090,3.320,0.000,12.801,0.000,0.000,34.691
13040,4.200,0.088,3.321,0.000,12.804,0.000,0.000,34.728
13067,4.200,0.085,3.321,0.000,12.807,0.000,0.000,34.671
13094,4.200,0.084,3.322,0.000,12.810,0.000,0.000,34.720
13121,4.200,0.082,3.323,0.000,12.812,0.000,0.000,34.698
13148,4.200,0.080,3.323,0.000,12.815,0.000,0.000,34.720
13175,4.200,0.078,3.324,0.000,12.817,0.000,0.000,34.641
13202,4.200,0.075,3.324,0.000,12.820,0.000,0.000,34.648
13229,4.200,0.074,3.325,0.000,12.822,0.000,0.000,34.703
13256,4.200,0.072,3.326,0.000,12.824,0.000,0.000,34.674
13283,4.200,0.070,3.326,0.000,12.826,0.000,0.000,34.681
13310,4.200,0.069,3.327,0.000,12.829,0.000,0.000,34.723
13337,4.200,0.067,3.327,0.000,12.831,0.000,0.000,34.693
13364,4.196,0.000,3.328,0.000,12.833,0.000,-0.004,34.721
13391,4.195,0.000,3.328,0.000,12.833,0.000,0.000,34.686
13418,4.194,0.000,3.328,0.000,12.833,0.000,0.000,34.675
13445,4.193,0.000,3.328,0.000,12.833,0.000,0.000,34.654
13472,4.193,0.000,3.328,0.000,12.833,0.000,0.000,34.701
13499,4.193,0.000,3.328,0.000,12.833,0.000,0.000,34.672
13526,4.192,0.000,3.328,0.000,12.833,0.000,0.000,34.661
13553,4.192,0.000,3.328,0.000,12.833,0.000,0.000,34.682
13580,4.192,0.000,3.328,0.000,12.833,0.000,0.000,34.661
13607,4.191,0.000,3.328,0.000,12.833,0.000,0.000,34.695
13634,4.191,0.000,3.328,0.000,12.833,0.000,0.000,34.624
13661,4.191,0.000,3.328,0.000,12.833,0.000,0.000,34.681
13688,4.191,0.000,3.328,0.000,12.833,0.000,0.000,34.678
13715,4.190,0.000,3.328,0.000,12.833,0.000,0.000,34.677
13742,4.190,0.000,3.328,0.000,12.833,0.000,0.000,34.658
13769,4.190,0.000,3.328,0.000,12.833,0.000,0.000,34.625
13796,4.190,0.000,3.328,0.000,12.833,0.000,0.000,34.640
13823,4.190,0.000,3.328,0.000,12.833,0.000,0.000,34.677
13850,4.189,0.000,3.328,0.000,12.833,0.000,0.000,34.641
13877,4.189,0.000,3.328,0.000,12.833,0.000,0.000,34.660
13904,4.189,0.000,3.328,0.000,12.833,0.000,0.000,34.681
13931,4.189,0.000,3.328,0.000,12.833,0.000,0.000,34.619
13958,4.189,0.000,3.328,0.000,12.833,0.000,0.000,34.639
13985,4.189,0.000,3.328,0.000,12.833,0.000,0.000,34.611
14012,4.188,0.000,3.328,0.000,12.833,0.000,0.000,34.696
14039,4.188,0.000,3.328,0.000,12.833,0.000,0.000,34.653
14066,4.188,0.000,3.328,0.000,12.833,0.000,0.000,34.673
14093,4.188,0.000,3.328,0.000,12.833,0.000,0.000,34.695
14120,4.188,0.000,3.328,0.000,12.833,0.000,0.000,34.607
14147,4.188,0.000,3.328,0.000,12.833,0.000,0.000,34.662
14174,4.188,0.000,3.328,0.000,12.833,0.000,0.000,34.657
14201,4.187,0.000,3.328,0.000,12.833,0.000,0.000,34.681
14228,4.187,0.000,3.328,0.000,12.833,0.000,0.000,34.601
14255,4.187,0.000,3.328,0.000,12.833,0.000,0.000,34.700
14282,4.187,0.000,3.328,0.000,12.833,0.000,0.000,34.637
14309,4.187,0.000,3.328,0.000,12.833,0.000,0.000,34.650
14336,4.187,0.000,3.328,0.000,12.833,0.000,0.000,34.674
14363,4.187,0.000,3.328,0.000,12.833,0.000,0.000,34.659
14390,4.187,0.000,3.328,0.000,12.833,0.000,0.000,34.653
14417,4.187,0.000,3.328,0.000,12.833,0.000,0.000,34.673
14444,4.187,0.000,3.328,0.000,12.833,0.000,0.000,34.663
14471,4.186,0.000,3.328,0.000,12.833,0.000,0.000,34.702
14498,4.186,0.000,3.328,0.000,12.833,0.000,0.000,34.660
14525,4.186,0.000,3.328,0.000,12.833,0.000,0.000,34.676
14552,4.186,0.000,3.328,0.000,12.833,0.000,0.000,34.655
14579,4.186,0.000,3.328,0.000,12.833,0.000,0.000,34.650
14606,4.186,0.000,3.328,0.000,12.833,0.000,0.000,34.665
14633,4.186,0.000,3.328,0.000,12.833,0.000,0.000,34.678
14660,4.186,0.000,3.328,0.000,12.833,0.000,0.000,34.661
14687,4.186,0.000,3.328,0.000,12.833,0.000,0.000,34.665
14714,4.186,0.000,3.328,0.000,12.833,0.000,0.000,34.671
14741,4.186,0.000,3.328,0.000,12.833,0.000,0.000,34.668
14768,4.185,0.000,3.328,0.000,12.833,0.000,0.000,34.711
14795,4.185,0.000,3.328,0.000,12.833,0.000,0.000,34.691
14822,4.185,0.000,3.328,0.000,12.833,0.000,0.000,34.720
14849,4.185,0.000,3.328,0.000,12.833,0.000,0.000,34.681
14876,4.185,0.000,3.328,0.000,12.833,0.000,0.000,34.647
14903,4.185,0.000,3.328,0.000,12.833,0.000,0.000,34.663
14930,4.185,0.000,3.328,0.000,12.833,0.000,0.000,34.641
14957,4.185,0.000,3.328,0.000,12.833,0.000,0.000,34.664
14984,4.185,0.000,3.328,0.000,12.833,0.000,0.000,34.664
15011,4.185,0.000,3.328,0.000,12.833,0.000,0.000,34.649
15038,4.185,0.000,3.328,0.000,12.833,0.000,0.000,34.656
15065,4.185,0.000,3.328,0.000,12.833,0.000,0.000,34.646
15092,4.185,0.000,3.328,0.000,12.833,0.000,0.000,34.628
15119,4.185,0.000,3.328,0.000,12.833,0.000,0.000,34.687
15146,4.185,0.000,3.328,0.000,12.833,0.000,0.000,34.671
15173,4.185,0.000,3.328,0.000,12.833,0.000,0.000,34.631
15200,4.185,0.000,3.328,0.000,12.833,0.000,0.000,34.652
15227,4.184,0.000,3.328,0.000,12.833,0.000,0.000,34.655
15254,4.184,0.000,3.328,0.000,12.833,0.000,0.000,34.649
15281,4.184,0.000,3.328,0.000,12.833,0.000,0.000,34.620
15308,4.184,0.000,3.328,0.000,12.833,0.000,0.000,34.637
15335,4.184,0.000,3.328,0.000,12.833,0.000,0.000,34.641
15362,4.184,0.000,3.328,0.000,12.833,0.000,0.000,34.673
15389,4.184,0.000,3.328,0.000,12.833,0.000,0.000,34.646
15416,4.184,0.000,3.328,0.000,12.833,0.000,0.000,34.653
15443,4.184,0.000,3.328,0.000,12.833,0.000,0.000,34.712
15470,4.184,0.000,3.328,0.000,12.833,0.000,0.000,34.624
15497,4.184,0.000,3.328,0.000,12.833,0.000,0.000,34.673
15524,4.184,0.000,3.328,0.000,12.833,0.000,0.000,34.661
15551,4.184,0.000,3.328,0.000,12.833,0.000,0.000,34.644
15578,4.184,0.000,3.328,0.000,12.833,0.000,0.000,34.622
15605,4.184,0.000,3.328,0.000,12.833,0.000,0.000,34.643
15632,4.184,0.000,3.328,0.000,12.833,0.000,0.000,34.646
15659,4.184,0.000,3.328,0.000,12.833,0.000,0.000,34.690
15686,4.183,0.000,3.328,0.000,12.833,0.000,0.000,34.681
15713,4.183,0.000,3.328,0.000,12.833,0.000,0.000,34.713
15740,4.183,0.000,3.328,0.000,12.833,0.000,0.000,34.684
15767,4.183,0.000,3.328,0.000,12.833,0.000,0.000,34.653
15794,4.183,0.000,3.328,0.000,12.833,0.000,0.000,34.635
15821,4.183,0.000,3.328,0.000,12.833,0.000,0.000,34.623
15848,4.183,0.000,3.328,0.000,12.833,0.000,0.000,34.663
15875,4.183,0.000,3.328,0.000,12.833,0.000,0.000,34.648
15902,4.183,0.000,3.328,0.000,12.833,0.000,0.000,34.642
15929,4.183,0.000,3.328,0.000,12.833,0.000,0.000,34.663
15956,4.183,0.000,3.328,0.000,12.833,0.000,0.000,34.614
15983,4.183,0.000,3.328,0.000,12.833,0.000,0.000,34.634
16010,4.183,0.000,3.328,0.000,12.833,0.000,0.000,34.656
16037,4.183,0.000,3.328,0.000,12.833,0.000,0.000,34.662
16064,4.183,0.000,3.328,0.000,12.833,0.000,0.000,34.638
16091,4.183,0.000,3.328,0.000,12.833,0.000,0.000,34.671
16118,4.183,0.000,3.328,0.000,12.833,0.000,0.000,34.679
16145,4.183,0.000,3.328,0.000,12.833,0.000,0.000,34.614
16172,4.183,0.000,3.328,0.000,12.833,0.000,0.000,34.616
16199,4.183,0.000,3.328,0.000,12.833,0.000,0.000,34.675
16226,4.183,0.000,3.328,0.000,12.833,0.000,0.000,34.623
16253,4.183,0.000,3.328,0.000,12.833,0.000,0.000,34.668
16280,4.182,0.000,3.328,0.000,12.833,0.000,0.000,34.660
16307,4.183,0.000,3.328,0.000,12.833,0.000,0.000,34.605
16334,4.182,0.000,3.328,0.000,12.833,0.000,0.000,34.653
16361,4.182,0.000,3.328,0.000,12.833,0.000,0.000,34.648
16388,4.183,0.000,3.328,0.000,12.833,0.000,0.000,34.602
16415,4.183,0.000,3.328,0.000,12.833,0.000,0.000,34.633
16442,4.183,0.000,3.328,0.000,12.833,0.000,0.000,34.653
16469,4.182,0.000,3.328,0.000,12.833,0.000,0.000,34.645
16496,4.182,0.000,3.328,0.000,12.833,0.000,0.000,34.652
16523,4.182,0.000,3.328,0.000,12.833,0.000,0.000,34.698
16550,4.182,0.000,3.328,0.000,12.833,0.000,0.000,34.656
16577,4.182,0.000,3.328,0.000,12.833,0.000,0.000,34.679
16604,4.182,0.000,3.328,0.000,12.833,0.000,0.000,34.691
16631,4.182,0.000,3.328,0.000,12.833,0.000,0.000,34.653
16658,4.182,0.000,3.328,0.000,12.833,0.000,0.000,34.604
16685,4.182,0.000,3.328,0.000,12.833,0.000,0.000,34.625
16712,4.182,0.000,3.328,0.000,12.833,0.000,0.000,34.617
16739,4.182,0.000,3.328,0.000,12.833,0.000,0.000,34.667
16766,4.182,0.000,3.328,0.000,12.833,0.000,0.000,34.613
16793,4.182,0.000,3.328,0.000,12.833,0.000,0.000,34.669
16820,4.182,0.000,3.328,0.000,12.833,0.000,0.000,34.672
16847,4.182,0.000,3.328,0.000,12.833,0.000,0.000,34.640
16874,4.182,0.000,3.328,0.000,12.833,0.000,0.000,34.658
16901,4.182,0.000,3.328,0.000,12.833,0.000,0.000,34.639
16928,4.182,0.000,3.328,0.000,12.833,0.000,0.000,34.651
16955,4.182,0.000,3.328,0.000,12.833,0.000,0.000,34.660
16981,3.935,-3.350,3.328,0.017,12.833,0.066,-0.001,34.762
17008,3.912,-3.350,3.328,0.042,12.833,0.165,-0.001,34.911
17035,3.897,-3.350,3.328,0.067,12.833,0.263,-0.001,35.055
17062,3.887,-3.350,3.328,0.092,12.833,0.361,0.000,35.234
17089,3.878,-3.350,3.328,0.117,12.833,0.458,0.000,35.402
17116,3.869,-3.350,3.328,0.142,12.833,0.556,0.000,35.537
17143,3.861,-3.350,3.328,0.168,12.833,0.653,0.000,35.676
17170,3.854,-3.350,3.328,0.193,12.833,0.750,0.000,35.816
17197,3.846,-3.350,3.328,0.218,12.833,0.846,0.000,35.900
17224,3.839,-3.350,3.328,0.243,12.833,0.943,0.000,36.041
17251,3.831,-3.350,3.328,0.268,12.833,1.039,0.000,36.130
17278,3.823,-3.350,3.328,0.293,12.833,1.135,0.000,36.198
17305,3.815,-3.350,3.328,0.318,12.833,1.231,0.000,36.268
17332,3.807,-3.350,3.328,0.343,12.833,1.327,0.000,36.358
17359,3.798,-3.350,3.328,0.369,12.833,1.423,-0.001,36.421
17386,3.790,-3.350,3.328,0.394,12.833,1.518,0.000,36.507
17413,3.781,-3.350,3.328,0.419,12.833,1.613,0.000,36.545
17440,3.772,-3.350,3.328,0.444,12.833,1.708,0.000,36.565
17467,3.763,-3.350,3.328,0.469,12.833,1.803,-0.001,36.643
17494,3.754,-3.350,3.328,0.494,12.833,1.897,0.000,36.704
17521,3.745,-3.350,3.328,0.519,12.833,1.991,0.000,36.714
17548,3.736,-3.350,3.328,0.544,12.833,2.085,0.000,36.727
17575,3.728,-3.350,3.328,0.570,12.833,2.179,0.000,36.767
17602,3.719,-3.350,3.328,0.595,12.833,2.273,0.000,36.789
17629,3.711,-3.350,3.328,0.620,12.833,2.366,0.000,36.765
17656,3.702,-3.350,3.328,0.645,12.833,2.459,0.000,36.843
17683,3.694,-3.350,3.328,0.670,12.833,2.552,0.000,36.840
17710,3.686,-3.350,3.328,0.695,12.833,2.645,0.000,36.829
17737,3.678,-3.350,3.328,0.720,12.833,2.737,0.000,36.832
17764,3.671,-3.350,3.328,0.745,12.833,2.830,0.000,36.876
17791,3.663,-3.350,3.328,0.771,12.833,2.922,0.000,36.860
17818,3.656,-3.350,3.328,0.796,12.833,3.014,0.000,36.869
17845,3.648,-3.350,3.328,0.821,12.833,3.106,0.000,36.921
17872,3.641,-3.350,3.328,0.846,12.833,3.197,0.000,36.938
17899,3.634,-3.350,3.328,0.871,12.833,3.289,0.000,36.937
17926,3.626,-3.350,3.328,0.896,12.833,3.380,0.000,36.962
17953,3.619,-3.350,3.328,0.921,12.833,3.471,0.000,36.997
17980,3.612,-3.350,3.328,0.946,12.833,3.562,0.000,37.004
18007,3.605,-3.350,3.328,0.972,12.833,3.652,0.000,37.055
18034,3.597,-3.350,3.328,0.997,12.833,3.743,0.000,37.056
18061,3.590,-3.350,3.328,1.022,12.833,3.833,0.000,37.040
18088,3.582,-3.350,3.328,1.047,12.833,3.923,0.000,37.114
18115,3.575,-3.350,3.328,1.072,12.833,4.013,0.000,37.149
18142,3.567,-3.350,3.328,1.097,12.833,4.103,0.000,37.122
18169,3.559,-3.350,3.328,1.122,12.833,4.192,0.000,37.186
18196,3.551,-3.350,3.328,1.147,12.833,4.282,0.000,37.185
18223,3.544,-3.350,3.328,1.173,12.833,4.371,0.000,37.199
18250,3.536,-3.350,3.328,1.198,12.833,4.460,0.000,37.236
18277,3.528,-3.350,3.328,1.223,12.833,4.548,0.000,37.266
18304,3.520,-3.350,3.328,1.248,12.833,4.637,-0.001,37.254
18331,3.512,-3.350,3.328,1.273,12.833,4.725,0.000,37.280
18358,3.504,-3.350,3.328,1.298,12.833,4.814,0.000,37.299
18385,3.496,-3.350,3.328,1.323,12.833,4.901,0.000,37.312
18412,3.488,-3.350,3.328,1.348,12.833,4.989,0.000,37.362
18439,3.480,-3.350,3.328,1.374,12.833,5.077,0.000,37.335
18466,3.472,-3.350,3.328,1.399,12.833,5.164,0.000,37.360
18493,3.464,-3.350,3.328,1.424,12.833,5.251,0.000,37.392
18520,3.457,-3.350,3.328,1.449,12.833,5.338,0.000,37.418
18547,3.449,-3.350,3.328,1.474,12.833,5.425,0.000,37.436
18574,3.442,-3.350,3.328,1.499,12.833,5.512,-0.001,37.438
18601,3.434,-3.350,3.328,1.524,12.833,5.598,0.000,37.474
18628,3.427,-3.350,3.328,1.550,12.833,5.684,0.000,37.482
18655,3.420,-3.350,3.328,1.575,12.833,5.770,0.000,37.519
18682,3.413,-3.350,3.328,1.600,12.833,5.856,0.000,37.551
18709,3.406,-3.350,3.328,1.625,12.833,5.942,0.000,37.518
18736,3.399,-3.350,3.328,1.650,12.833,6.027,0.000,37.542
18763,3.393,-3.350,3.328,1.675,12.833,6.112,0.000,37.543
18790,3.386,-3.350,3.328,1.700,12.833,6.198,0.000,37.615
18817,3.379,-3.350,3.328,1.725,12.833,6.283,0.000,37.585
18844,3.373,-3.350,3.328,1.751,12.833,6.367,0.000,37.611
18871,3.367,-3.350,3.328,1.776,12.833,6.452,0.000,37.647
18898,3.361,-3.350,3.328,1.801,12.833,6.537,0.000,37.653
18925,3.355,-3.350,3.328,1.826,12.833,6.621,0.000,37.665
18952,3.349,-3.350,3.328,1.851,12.833,6.705,0.000,37.716
18979,3.343,-3.350,3.328,1.876,12.833,6.789,0.000,37.704
19006,3.337,-3.350,3.328,1.901,12.833,6.873,0.000,37.725
19033,3.331,-3.350,3.328,1.926,12.833,6.957,0.000,37.748
19060,3.326,-3.350,3.328,1.952,12.833,7.041,0.000,37.839
19087,3.320,-3.350,3.328,1.977,12.833,7.124,0.000,37.820
19114,3.315,-3.350,3.328,2.002,12.833,7.208,0.000,37.876
19141,3.309,-3.350,3.328,2.027,12.833,7.291,0.000,37.888
19168,3.304,-3.350,3.328,2.052,12.833,7.374,0.000,37.894
19195,3.298,-3.350,3.328,2.077,12.833,7.457,0.000,37.930
19222,3.293,-3.350,3.328,2.102,12.833,7.540,0.000,37.964
19249,3.287,-3.350,3.328,2.127,12.833,7.622,0.000,37.969
19276,3.282,-3.350,3.328,2.153,12.833,7.705,0.000,37.995
19303,3.276,-3.350,3.328,2.178,12.833,7.787,0.000,37.971
19330,3.270,-3.350,3.328,2.203,12.833,7.869,0.000,38.004
19357,3.264,-3.350,3.328,2.228,12.833,7.952,0.000,38.072
19384,3.258,-3.350,3.328,2.253,12.833,8.033,0.000,38.110
19411,3.251,-3.350,3.328,2.278,12.833,8.115,0.000,38.094
19438,3.245,-3.350,3.328,2.303,12.833,8.197,0.000,38.114
19465,3.239,-3.350,3.328,2.328,12.833,8.278,0.000,38.115
19492,3.232,-3.350,3.328,2.354,12.833,8.360,0.000,38.122
19519,3.225,-3.350,3.328,2.379,12.833,8.441,0.000,38.149
19546,3.217,-3.350,3.328,2.404,12.833,8.522,0.000,38.215
19573,3.210,-3.350,3.328,2.429,12.833,8.602,0.000,38.166
19600,3.202,-3.350,3.328,2.454,12.833,8.683,0.000,38.156
19627,3.194,-3.350,3.328,2.479,12.833,8.763,0.000,38.254
19654,3.186,-3.350,3.328,2.504,12.833,8.843,0.000,38.235
19681,3.177,-3.350,3.328,2.529,12.833,8.923,0.000,38.262
19708,3.169,-3.350,3.328,2.555,12.833,9.003,0.000,38.288
19735,3.160,-3.350,3.328,2.580,12.833,9.083,0.000,38.336
19762,3.150,-3.350,3.328,2.605,12.833,9.162,0.000,38.355
19789,3.140,-3.350,3.328,2.630,12.833,9.241,0.000,38.402
19816,3.130,-3.350,3.328,2.655,12.833,9.320,0.000,38.417
19843,3.119,-3.350,3.328,2.680,12.833,9.398,0.000,38.482
19870,3.108,-3.350,3.328,2.705,12.833,9.477,-0.001,38.498
19897,3.097,-3.350,3.328,2.730,12.833,9.554,-0.001,38.506
19924,3.084,-3.350,3.328,2.756,12.833,9.632,-0.001,38.579
19951,3.071,-3.350,3.328,2.781,12.833,9.709,-0.001,38.593
19978,3.057,-3.350,3.328,2.806,12.833,9.786,-0.001,38.747
20005,3.043,-3.350,3.328,2.831,12.833,9.863,-0.001,38.781
20032,3.027,-3.350,3.328,2.856,12.833,9.939,-0.001,38.850
20059,3.010,-3.350,3.328,2.881,12.833,10.015,-0.001,38.872
20086,2.991,-3.350,3.328,2.906,12.833,10.091,-0.001,39.048
20113,2.970,-3.350,3.328,2.932,12.833,10.166,-0.001,39.127
20140,2.947,-3.350,3.328,2.957,12.833,10.240,-0.001,39.323
20167,2.922,-3.350,3.328,2.982,12.833,10.314,-0.001,39.409
20194,2.893,-3.350,3.328,3.007,12.833,10.387,-0.001,39.582
20221,2.862,-3.350,3.328,3.032,12.833,10.459,-0.001,39.624
20248,2.826,-3.350,3.328,3.057,12.833,10.530,-0.002,39.874
20275,2.784,-3.350,3.328,3.082,12.833,10.601,-0.001,40.122
20302,2.737,-3.350,3.328,3.107,12.833,10.670,-0.002,40.350
20329,2.683,-3.350,3.328,3.133,12.833,10.738,-0.002,40.626
20356,2.617,-3.350,3.328,3.158,12.833,10.805,-0.003,40.910
20383,2.538,-3.350,3.328,3.183,12.833,10.870,-0.003,41.400
20410,3.134,0.000,3.328,3.193,12.833,10.896,0.003,41.565
20437,3.185,0.000,3.328,3.193,12.833,10.896,0.001,41.009
20464,3.209,0.000,3.328,3.193,12.833,10.896,0.001,40.391
20491,3.222,0.000,3.328,3.193,12.833,10.896,0.000,39.876
20518,3.230,0.000,3.328,3.193,12.833,10.896,0.000,39.472
20545,3.236,0.000,3.328,3.193,12.833,10.896,0.000,39.010
20572,3.240,0.000,3.328,3.193,12.833,10.896,0.000,38.582
20599,3.244,0.000,3.328,3.193,12.833,10.896,0.000,38.246
20626,3.246,0.000,3.328,3.193,12.833,10.896,0.000,37.988
20653,3.248,0.000,3.328,3.193,12.833,10.896,0.000,37.698
20680,3.250,0.000,3.328,3.193,12.833,10.896,0.000,37.435
20707,3.251,0.000,3.328,3.193,12.833,10.896,0.000,37.135
20734,3.252,0.000,3.328,3.193,12.833,10.896,0.000,36.990
20761,3.253,0.000,3.328,3.193,12.833,10.896,0.000,36.792
20788,3.255,0.000,3.328,3.193,12.833,10.896,0.000,36.636
20815,3.255,0.000,3.328,3.193,12.833,10.896,0.000,36.428
20842,3.256,0.000,3.328,3.193,12.833,10.896,0.000,36.308
20869,3.257,0.000,3.328,3.193,12.833,10.896,0.000,36.159
20896,3.257,0.000,3.328,3.193,12.833,10.896,0.000,36.082
20923,3.258,0.000,3.328,3.193,12.833,10.896,0.000,35.950
20950,3.258,0.000,3.328,3.193,12.833,10.896,0.000,35.840
20977,3.259,0.000,3.328,3.193,12.833,10.896,0.000,35.744
21004,3.259,0.000,3.328,3.193,12.833,10.896,0.000,35.627
21031,3.260,0.000,3.328,3.193,12.833,10.896,0.000,35.560
21058,3.260,0.000,3.328,3.193,12.833,10.896,0.000,35.520
21085,3.261,0.000,3.328,3.193,12.833,10.896,0.000,35.449
21112,3.261,0.000,3.328,3.193,12.833,10.896,0.000,35.358
21139,3.261,0.000,3.328,3.193,12.833,10.896,0.000,35.322
21166,3.262,0.000,3.328,3.193,12.833,10.896,0.000,35.315
21193,3.262,0.000,3.328,3.193,12.833,10.896,0.000,35.252
21220,3.262,0.000,3.328,3.193,12.833,10.896,0.000,35.163
21247,3.263,0.000,3.328,3.193,12.833,10.896,0.000,35.116
21274,3.263,0.000,3.328,3.193,12.833,10.896,0.000,35.093
21301,3.263,0.000,3.328,3.193,12.833,10.896,0.000,35.075
21328,3.263,0.000,3.328,3.193,12.833,10.896,0.000,35.071
21355,3.264,0.000,3.328,3.193,12.833,10.896,0.000,35.036
21382,3.264,0.000,3.328,3.193,12.833,10.896,0.000,34.958
21409,3.264,0.000,3.328,3.193,12.833,10.896,0.000,35.018
21436,3.264,0.000,3.328,3.193,12.833,10.896,0.000,34.920
21463,3.265,0.000,3.328,3.193,12.833,10.896,0.000,34.930
21490,3.265,0.000,3.328,3.193,12.833,10.896,0.000,34.916
21517,3.265,0.000,3.328,3.193,12.833,10.896,0.000,34.933
21544,3.265,0.000,3.328,3.193,12.833,10.896,0.000,34.944
21571,3.266,0.000,3.328,3.193,12.833,10.896,0.000,34.840
21598,3.266,0.000,3.328,3.193,12.833,10.896,0.000,34.868
21625,3.266,0.000,3.328,3.193,12.833,10.896,0.000,34.835
21652,3.266,0.000,3.328,3.193,12.833,10.896,0.000,34.785
21679,3.266,0.000,3.328,3.193,12.833,10.896,0.000,34.817
21706,3.266,0.000,3.328,3.193,12.833,10.896,0.000,34.821
21733,3.267,0.000,3.328,3.193,12.833,10.896,0.000,34.802
21760,3.267,0.000,3.328,3.193,12.833,10.896,0.000,34.783
21787,3.267,0.000,3.328,3.193,12.833,10.896,0.000,34.731
21814,3.267,0.000,3.328,3.193,12.833,10.896,0.000,34.745
21841,3.267,0.000,3.328,3.193,12.833,10.896,0.000,34.742
21868,3.267,0.000,3.328,3.193,12.833,10.896,0.000,34.708
21895,3.268,0.000,3.328,3.193,12.833,10.896,0.000,34.773
21922,3.268,0.000,3.328,3.193,12.833,10.896,0.000,34.709
21949,3.268,0.000,3.328,3.193,12.833,10.896,0.000,34.707
21976,3.268,0.000,3.328,3.193,12.833,10.896,0.000,34.716
22003,3.268,0.000,3.328,3.193,12.833,10.896,0.000,34.702
22030,3.268,0.000,3.328,3.193,12.833,10.896,0.000,34.731
22057,3.268,0.000,3.328,3.193,12.833,10.896,0.000,34.733
22084,3.268,0.000,3.328,3.193,12.833,10.896,0.000,34.743
22111,3.269,0.000,3.328,3.193,12.833,10.896,0.000,34.729
22138,3.269,0.000,3.328,3.193,12.833,10.896,0.000,34.716
22165,3.269,0.000,3.328,3.193,12.833,10.896,0.000,34.690
22192,3.269,0.000,3.328,3.193,12.833,10.896,0.000,34.705
22219,3.269,0.000,3.328,3.193,12.833,10.896,0.000,34.723
22246,3.269,0.000,3.328,3.193,12.833,10.896,0.000,34.711
22273,3.269,0.000,3.328,3.193,12.833,10.896,0.000,34.787
22300,3.269,0.000,3.328,3.193,12.833,10.896,0.000,34.716
22327,3.269,0.000,3.328,3.193,12.833,10.896,0.000,34.693
22354,3.270,0.000,3.328,3.193,12.833,10.896,0.000,34.668
22381,3.270,0.000,3.328,3.193,12.833,10.896,0.000,34.714
22408,3.270,0.000,3.328,3.193,12.833,10.896,0.000,34.707
22435,3.270,0.000,3.328,3.193,12.833,10.896,0.000,34.696
22462,3.270,0.000,3.328,3.193,12.833,10.896,0.000,34.687
22489,3.270,0.000,3.328,3.193,12.833,10.896,0.000,34.684
22516,3.270,0.000,3.328,3.193,12.833,10.896,0.000,34.638
22543,3.270,0.000,3.328,3.193,12.833,10.896,0.000,34.703
22570,3.270,0.000,3.328,3.193,12.833,10.896,0.000,34.670
22597,3.271,0.000,3.328,3.193,12.833,10.896,0.000,34.641
22624,3.271,0.000,3.328,3.193,12.833,10.896,0.000,34.636
22651,3.271,0.000,3.328,3.193,12.833,10.896,0.000,34.669
22678,3.271,0.000,3.328,3.193,12.833,10.896,0.000,34.656
22705,3.271,0.000,3.328,3.193,12.833,10.896,0.000,34.667
22732,3.271,0.000,3.328,3.193,12.833,10.896,0.000,34.642
22759,3.271,0.000,3.328,3.193,12.833,10.896,0.000,34.695
22786,3.271,0.000,3.328,3.193,12.833,10.896,0.000,34.698
22813,3.271,0.000,3.328,3.193,12.833,10.896,0.000,34.670
22840,3.271,0.000,3.328,3.193,12.833,10.896,0.000,34.696
22867,3.272,0.000,3.328,3.193,12.833,10.896,0.000,34.669
22894,3.272,0.000,3.328,3.193,12.833,10.896,0.000,34.676
22921,3.272,0.000,3.328,3.193,12.833,10.896,0.000,34.678
22948,3.272,0.000,3.328,3.193,12.833,10.896,0.000,34.646
22975,3.272,0.000,3.328,3.193,12.833,10.896,0.000,34.672
23002,3.272,0.000,3.328,3.193,12.833,10.896,0.000,34.687
23029,3.272,0.000,3.328,3.193,12.833,10.896,0.000,34.687
23056,3.272,0.000,3.328,3.193,12.833,10.896,0.000,34.658
23083,3.272,0.000,3.328,3.193,12.833,10.896,0.000,34.648
23110,3.272,0.000,3.328,3.193,12.833,10.896,0.000,34.674
23137,3.272,0.000,3.328,3.193,12.833,10.896,0.000,34.682
23164,3.273,0.000,3.328,3.193,12.833,10.896,0.000,34.683
23191,3.272,0.000,3.328,3.193,12.833,10.896,0.000,34.658
23218,3.273,0.000,3.328,3.193,12.833,10.896,0.000,34.687
23245,3.273,0.000,3.328,3.193,12.833,10.896,0.000,34.653
23272,3.273,0.000,3.328,3.193,12.833,10.896,0.000,34.642
23299,3.273,0.000,3.328,3.193,12.833,10.896,0.000,34.662
23326,3.273,0.000,3.328,3.193,12.833,10.896,0.000,34.659
23353,3.273,0.000,3.328,3.193,12.833,10.896,0.000,34.650
23380,3.273,0.000,3.328,3.193,12.833,10.896,0.000,34.636
23407,3.273,0.000,3.328,3.193,12.833,10.896,0.000,34.677
23434,3.273,0.000,3.328,3.193,12.833,10.896,0.000,34.644
23461,3.273,0.000,3.328,3.193,12.833,10.896,0.000,34.684
23488,3.273,0.000,3.328,3.193,12.833,10.896,0.000,34.652
23515,3.274,0.000,3.328,3.193,12.833,10.896,0.000,34.670
23542,3.273,0.000,3.328,3.193,12.833,10.896,0.000,34.637
23569,3.274,0.000,3.328,3.193,12.833,10.896,0.000,34.633
23596,3.274,0.000,3.328,3.193,12.833,10.896,0.000,34.661
23623,3.274,0.000,3.328,3.193,12.833,10.896,0.000,34.696
23650,3.274,0.000,3.328,3.193,12.833,10.896,0.000,34.629
23677,3.274,0.000,3.328,3.193,12.833,10.896,0.000,34.662
23704,3.274,0.000,3.328,3.193,12.833,10.896,0.000,34.632
23731,3.274,0.000,3.328,3.193,12.833,10.896,0.000,34.667
23758,3.274,0.000,3.328,3.193,12.833,10.896,0.000,34.645
23785,3.274,0.000,3.328,3.193,12.833,10.896,0.000,34.638
23812,3.274,0.000,3.328,3.193,12.833,10.896,0.000,34.594
23839,3.274,0.000,3.328,3.193,12.833,10.896,0.000,34.617
23866,3.274,0.000,3.328,3.193,12.833,10.896,0.000,34.637
23893,3.274,0.000,3.328,3.193,12.833,10.896,0.000,34.649
23920,3.274,0.000,3.328,3.193,12.833,10.896,0.000,34.649
23947,3.274,0.000,3.328,3.193,12.833,10.896,0.000,34.670
23974,3.275,0.000,3.328,3.193,12.833,10.896,0.000,34.695
23994,3.275,0.000,3.328,3.193,12.833,10.896,0.000,34.656