File: data/T35/1C/3.csv
time_s,voltage_v,current_a,chargecapacity_ah,dischargecapacity_ah,charge_energy_wh,discharge_energy_wh,voltagedot_v_per_s,temp_degc
1,2.991,0.000,0.000,0.000,0.000,0.000,0.000,34.146
28,2.991,0.000,0.000,0.000,0.000,0.000,0.000,34.188
55,2.991,0.000,0.000,0.000,0.000,0.000,0.000,34.205
82,2.991,0.000,0.000,0.000,0.000,0.000,0.000,34.215
109,2.992,0.000,0.000,0.000,0.000,0.000,0.000,34.190
136,2.991,0.000,0.000,0.000,0.000,0.000,0.000,34.155
163,2.992,0.000,0.000,0.000,0.000,0.000,0.000,34.172
190,2.992,0.000,0.000,0.000,0.000,0.000,0.000,34.217
217,2.992,0.000,0.000,0.000,0.000,0.000,0.000,34.181
244,2.992,0.000,0.000,0.000,0.000,0.000,0.000,34.185
271,2.992,0.000,0.000,0.000,0.000,0.000,0.000,34.198
298,2.992,0.000,0.000,0.000,0.000,0.000,0.000,34.221
325,2.992,0.000,0.000,0.000,0.000,0.000,0.000,34.204
352,2.992,0.000,0.000,0.000,0.000,0.000,0.000,34.234
379,2.992,0.000,0.000,0.000,0.000,0.000,0.000,34.205
406,2.992,0.000,0.000,0.000,0.000,0.000,0.000,34.186
433,2.992,0.000,0.000,0.000,0.000,0.000,0.000,34.251
460,2.992,0.000,0.000,0.000,0.000,0.000,0.000,34.210
487,2.992,0.000,0.000,0.000,0.000,0.000,0.000,34.268
514,2.992,0.000,0.000,0.000,0.000,0.000,0.000,34.200
541,2.992,0.000,0.000,0.000,0.000,0.000,0.000,34.240
568,2.992,0.000,0.000,0.000,0.000,0.000,0.000,34.213
595,2.992,0.000,0.000,0.000,0.000,0.000,0.000,34.256
622,2.992,0.000,0.000,0.000,0.000,0.000,0.000,34.237
649,2.992,0.000,0.000,0.000,0.000,0.000,0.000,34.213
676,2.993,0.000,0.000,0.000,0.000,0.000,0.000,34.212
703,2.993,0.000,0.000,0.000,0.000,0.000,0.000,34.244
730,2.993,0.000,0.000,0.000,0.000,0.000,0.000,34.212
757,2.993,0.000,0.000,0.000,0.000,0.000,0.000,34.223
784,2.993,0.000,0.000,0.000,0.000,0.000,0.000,34.241
811,2.993,0.000,0.000,0.000,0.000,0.000,0.000,34.207
838,2.993,0.000,0.000,0.000,0.000,0.000,0.000,34.208
865,2.993,0.000,0.000,0.000,0.000,0.000,0.000,34.227
892,2.993,0.000,0.000,0.000,0.000,0.000,0.000,34.199
919,2.993,0.000,0.000,0.000,0.000,0.000,0.000,34.178
946,2.993,0.000,0.000,0.000,0.000,0.000,0.000,34.254
973,2.993,0.000,0.000,0.000,0.000,0.000,0.000,34.222
1000,2.993,0.000,0.000,0.000,0.000,0.000,0.000,34.251
1027,2.993,0.000,0.000,0.000,0.000,0.000,0.000,34.211
1054,2.993,0.000,0.000,0.000,0.000,0.000,0.000,34.219
1081,2.993,0.000,0.000,0.000,0.000,0.000,0.000,34.203
1108,2.994,0.000,0.000,0.000,0.000,0.000,0.000,34.220
1135,2.994,0.000,0.000,0.000,0.000,0.000,0.000,34.239
1162,2.994,0.000,0.000,0.000,0.000,0.000,0.000,34.235
1189,2.994,0.000,0.000,0.000,0.000,0.000,0.000,34.227
1216,2.993,0.000,0.000,0.000,0.000,0.000,0.000,34.215
1243,2.994,0.000,0.000,0.000,0.000,0.000,0.000,34.223
1270,2.994,0.000,0.000,0.000,0.000,0.000,0.000,34.250
1297,2.994,0.000,0.000,0.000,0.000,0.000,0.000,34.217
1324,2.994,0.000,0.000,0.000,0.000,0.000,0.000,34.183
1351,2.994,0.000,0.000,0.000,0.000,0.000,0.000,34.206
1378,2.994,0.000,0.000,0.000,0.000,0.000,0.000,34.180
1405,2.994,0.000,0.000,0.000,0.000,0.000,0.000,34.180
1432,2.994,0.000,0.000,0.000,0.000,0.000,0.000,34.216
1459,2.994,0.000,0.000,0.000,0.000,0.000,0.000,34.232
1486,2.994,0.000,0.000,0.000,0.000,0.000,0.000,34.199
1513,2.994,0.000,0.000,0.000,0.000,0.000,0.000,34.221
1540,2.994,0.000,0.000,0.000,0.000,0.000,0.000,34.211
1567,2.994,0.000,0.000,0.000,0.000,0.000,0.000,34.201
1594,2.994,0.000,0.000,0.000,0.000,0.000,0.000,34.182
1621,2.994,0.000,0.000,0.000,0.000,0.000,0.000,34.175
1648,2.994,0.000,0.000,0.000,0.000,0.000,0.000,34.219
1675,2.995,0.000,0.000,0.000,0.000,0.000,0.000,34.193
1702,2.995,0.000,0.000,0.000,0.000,0.000,0.000,34.210
1729,2.995,0.000,0.000,0.000,0.000,0.000,0.000,34.238
1756,2.995,0.000,0.000,0.000,0.000,0.000,0.000,34.240
1783,2.995,0.000,0.000,0.000,0.000,0.000,0.000,34.190
1810,2.995,0.000,0.000,0.000,0.000,0.000,0.000,34.213
1837,2.995,0.000,0.000,0.000,0.000,0.000,0.000,34.197
1864,2.995,0.000,0.000,0.000,0.000,0.000,0.000,34.222
1891,2.995,0.000,0.000,0.000,0.000,0.000,0.000,34.192
1918,2.995,0.000,0.000,0.000,0.000,0.000,0.000,34.184
1945,2.995,0.000,0.000,0.000,0.000,0.000,0.000,34.205
1972,2.995,0.000,0.000,0.000,0.000,0.000,0.000,34.211
1999,2.995,0.000,0.000,0.000,0.000,0.000,0.000,34.218
2026,2.995,0.000,0.000,0.000,0.000,0.000,0.000,34.223
2053,2.995,0.000,0.000,0.000,0.000,0.000,0.000,34.204
2080,2.995,0.000,0.000,0.000,0.000,0.000,0.000,34.172
2107,2.995,0.000,0.000,0.000,0.000,0.000,0.000,34.153
2134,2.995,0.000,0.000,0.000,0.000,0.000,0.000,34.182
2161,2.995,0.000,0.000,0.000,0.000,0.000,0.000,34.212
2188,2.995,0.000,0.000,0.000,0.000,0.000,0.000,34.219
2215,2.996,0.000,0.000,0.000,0.000,0.000,0.000,34.209
2242,2.996,0.000,0.000,0.000,0.000,0.000,0.000,34.209
2269,2.996,0.000,0.000,0.000,0.000,0.000,0.000,34.190
2296,2.996,0.000,0.000,0.000,0.000,0.000,0.000,34.176
2323,2.996,0.000,0.000,0.000,0.000,0.000,0.000,34.201
2350,2.996,0.000,0.000,0.000,0.000,0.000,0.000,34.201
2377,2.996,0.000,0.000,0.000,0.000,0.000,0.000,34.262
2404,2.996,0.000,0.000,0.000,0.000,0.000,0.000,34.235
2431,2.996,0.000,0.000,0.000,0.000,0.000,0.000,34.234
2458,2.996,0.000,0.000,0.000,0.000,0.000,0.000,34.203
2485,2.996,0.000,0.000,0.000,0.000,0.000,0.000,34.186
2512,2.996,0.000,0.000,0.000,0.000,0.000,0.000,34.216
2539,2.996,0.000,0.000,0.000,0.000,0.000,0.000,34.213
2566,2.996,0.000,0.000,0.000,0.000,0.000,0.000,34.230
2593,2.996,0.000,0.000,0.000,0.000,0.000,0.000,34.178
2620,2.996,0.000,0.000,0.000,0.000,0.000,0.000,34.214
2647,2.996,0.000,0.000,0.000,0.000,0.000,0.000,34.182
2674,2.996,0.000,0.000,0.000,0.000,0.000,0.000,34.230
2701,2.996,0.000,0.000,0.000,0.000,0.000,0.000,34.262
2728,2.996,0.000,0.000,0.000,0.000,0.000,0.000,34.243
2755,2.996,0.000,0.000,0.000,0.000,0.000,0.000,34.185
2782,2.997,0.000,0.000,0.000,0.000,0.000,0.000,34.203
2809,2.997,0.000,0.000,0.000,0.000,0.000,0.000,34.213
2836,2.997,0.000,0.000,0.000,0.000,0.000,0.000,34.197
2863,2.997,0.000,0.000,0.000,0.000,0.000,0.000,34.196
2890,2.997,0.000,0.000,0.000,0.000,0.000,0.000,34.251
2917,2.997,0.000,0.000,0.000,0.000,0.000,0.000,34.220
2944,2.997,0.000,0.000,0.000,0.000,0.000,0.000,34.219
2971,2.997,0.000,0.000,0.000,0.000,0.000,0.000,34.202
2998,2.997,0.000,0.000,0.000,0.000,0.000,0.000,34.227
3025,2.997,0.000,0.000,0.000,0.000,0.000,0.000,34.203
3052,2.997,0.000,0.000,0.000,0.000,0.000,0.000,34.194
3079,2.997,0.000,0.000,0.000,0.000,0.000,0.000,34.180
3106,2.997,0.000,0.000,0.000,0.000,0.000,0.000,34.166
3133,2.997,0.000,0.000,0.000,0.000,0.000,0.000,34.209
3160,2.997,0.000,0.000,0.000,0.000,0.000,0.000,34.195
3187,2.997,0.000,0.000,0.000,0.000,0.000,0.000,34.208
3214,2.997,0.000,0.000,0.000,0.000,0.000,0.000,34.189
3241,2.997,0.000,0.000,0.000,0.000,0.000,0.000,34.203
3268,2.997,0.000,0.000,0.000,0.000,0.000,0.000,34.195
3295,2.997,0.000,0.000,0.000,0.000,0.000,0.000,34.220
3322,2.997,0.000,0.000,0.000,0.000,0.000,0.000,34.183
3349,2.998,0.000,0.000,0.000,0.000,0.000,0.000,34.256
3376,2.998,0.000,0.000,0.000,0.000,0.000,0.000,34.191
3403,2.998,0.000,0.000,0.000,0.000,0.000,0.000,34.228
3430,2.998,0.000,0.000,0.000,0.000,0.000,0.000,34.240
3457,2.998,0.000,0.000,0.000,0.000,0.000,0.000,34.201
3484,2.998,0.000,0.000,0.000,0.000,0.000,0.000,34.217
3511,2.998,0.000,0.000,0.000,0.000,0.000,0.000,34.199
3538,2.998,0.000,0.000,0.000,0.000,0.000,0.000,34.204
3565,2.998,0.000,0.000,0.000,0.000,0.000,0.000,34.190
3592,2.998,0.000,0.000,0.000,0.000,0.000,0.000,34.253
3618,3.233,1.625,0.008,0.000,0.026,0.000,0.003,34.197
3645,3.295,1.625,0.020,0.000,0.066,0.000,0.002,34.187
3672,3.341,1.625,0.033,0.000,0.106,0.000,0.001,34.216
3699,3.378,1.625,0.045,0.000,0.147,0.000,0.001,34.197
3726,3.409,1.625,0.057,0.000,0.189,0.000,0.001,34.221
3753,3.435,1.625,0.069,0.000,0.230,0.000,0.001,34.266
3780,3.458,1.625,0.081,0.000,0.272,0.000,0.001,34.261
3807,3.478,1.625,0.093,0.000,0.315,0.000,0.001,34.260
3834,3.494,1.625,0.106,0.000,0.357,0.000,0.001,34.306
3861,3.504,1.625,0.118,0.000,0.400,0.000,0.000,34.356
3888,3.509,1.625,0.130,0.000,0.443,0.000,0.000,34.399
3915,3.512,1.625,0.142,0.000,0.485,0.000,0.000,34.436
3942,3.514,1.625,0.154,0.000,0.528,0.000,0.000,34.542
3969,3.516,1.625,0.167,0.000,0.571,0.000,0.000,34.658
3996,3.518,1.625,0.179,0.000,0.614,0.000,0.000,34.683
4023,3.521,1.625,0.191,0.000,0.657,0.000,0.000,34.749
4050,3.523,1.625,0.203,0.000,0.700,0.000,0.000,34.852
4077,3.526,1.625,0.215,0.000,0.743,0.000,0.000,34.843
4104,3.529,1.625,0.228,0.000,0.786,0.000,0.000,34.952
4131,3.532,1.625,0.240,0.000,0.829,0.000,0.000,34.937
4158,3.535,1.625,0.252,0.000,0.872,0.000,0.000,35.025
4185,3.538,1.625,0.264,0.000,0.915,0.000,0.000,35.127
4212,3.540,1.625,0.276,0.000,0.958,0.000,0.000,35.158
4239,3.543,1.625,0.288,0.000,1.001,0.000,0.000,35.181
4266,3.546,1.625,0.301,0.000,1.044,0.000,0.000,35.161
4293,3.549,1.625,0.313,0.000,1.088,0.000,0.000,35.254
4320,3.552,1.625,0.325,0.000,1.131,0.000,0.000,35.248
4347,3.555,1.625,0.337,0.000,1.174,0.000,0.000,35.285
4374,3.558,1.625,0.349,0.000,1.218,0.000,0.000,35.319
4401,3.561,1.625,0.362,0.000,1.261,0.000,0.000,35.308
4428,3.564,1.625,0.374,0.000,1.304,0.000,0.000,35.357
4455,3.567,1.625,0.386,0.000,1.348,0.000,0.000,35.390
4482,3.570,1.625,0.398,0.000,1.391,0.000,0.000,35.365
4509,3.573,1.625,0.410,0.000,1.435,0.000,0.000,35.416
4536,3.576,1.625,0.423,0.000,1.478,0.000,0.000,35.396
4563,3.579,1.625,0.435,0.000,1.522,0.000,0.000,35.381
4590,3.582,1.625,0.447,0.000,1.566,0.000,0.000,35.413
4617,3.585,1.625,0.459,0.000,1.609,0.000,0.000,35.387
4644,3.589,1.625,0.471,0.000,1.653,0.000,0.000,35.403
4671,3.592,1.625,0.484,0.000,1.697,0.000,0.000,35.419
4698,3.596,1.625,0.496,0.000,1.741,0.000,0.000,35.406
4725,3.599,1.625,0.508,0.000,1.784,0.000,0.000,35.376
4752,3.602,1.625,0.520,0.000,1.828,0.000,0.000,35.388
4779,3.606,1.625,0.532,0.000,1.872,0.000,0.000,35.375
4806,3.609,1.625,0.544,0.000,1.916,0.000,0.000,35.379
4833,3.612,1.625,0.557,0.000,1.960,0.000,0.000,35.421
4860,3.615,1.625,0.569,0.000,2.004,0.000,0.000,35.367
4887,3.618,1.625,0.581,0.000,2.048,0.000,0.000,35.324
4914,3.621,1.625,0.593,0.000,2.093,0.000,0.000,35.340
4941,3.624,1.625,0.605,0.000,2.137,0.000,0.000,35.305
4968,3.627,1.625,0.618,0.000,2.181,0.000,0.000,35.270
4995,3.629,1.625,0.630,0.000,2.225,0.000,0.000,35.332
5022,3.632,1.625,0.642,0.000,2.269,0.000,0.000,35.302
5049,3.634,1.625,0.654,0.000,2.314,0.000,0.000,35.316
5076,3.637,1.625,0.666,0.000,2.358,0.000,0.000,35.307
5103,3.639,1.625,0.679,0.000,2.402,0.000,0.000,35.266
5130,3.641,1.625,0.691,0.000,2.447,0.000,0.000,35.307
5157,3.643,1.625,0.703,0.000,2.491,0.000,0.000,35.346
5184,3.646,1.625,0.715,0.000,2.535,0.000,0.000,35.286
5211,3.648,1.625,0.727,0.000,2.580,0.000,0.000,35.258
5238,3.650,1.625,0.739,0.000,2.624,0.000,0.000,35.268
5265,3.652,1.625,0.752,0.000,2.669,0.000,0.000,35.290
5292,3.655,1.625,0.764,0.000,2.713,0.000,0.000,35.261
5319,3.657,1.625,0.776,0.000,2.758,0.000,0.000,35.269
5346,3.659,1.625,0.788,0.000,2.803,0.000,0.000,35.310
5373,3.662,1.625,0.800,0.000,2.847,0.000,0.000,35.299
5400,3.664,1.625,0.813,0.000,2.892,0.000,0.000,35.277
5427,3.667,1.625,0.825,0.000,2.937,0.000,0.000,35.324
5454,3.669,1.625,0.837,0.000,2.981,0.000,0.000,35.306
5481,3.672,1.625,0.849,0.000,3.026,0.000,0.000,35.329
5508,3.674,1.625,0.861,0.000,3.071,0.000,0.000,35.289
5535,3.677,1.625,0.874,0.000,3.116,0.000,0.000,35.293
5562,3.679,1.625,0.886,0.000,3.160,0.000,0.000,35.262
5589,3.682,1.625,0.898,0.000,3.205,0.000,0.000,35.330
5616,3.684,1.625,0.910,0.000,3.250,0.000,0.000,35.319
5643,3.687,1.625,0.922,0.000,3.295,0.000,0.000,35.332
5670,3.689,1.625,0.935,0.000,3.340,0.000,0.000,35.336
5697,3.692,1.625,0.947,0.000,3.385,0.000,0.000,35.325
5724,3.694,1.625,0.959,0.000,3.430,0.000,0.000,35.359
5751,3.697,1.625,0.971,0.000,3.475,0.000,0.000,35.375
5778,3.700,1.625,0.983,0.000,3.520,0.000,0.000,35.340
5805,3.702,1.625,0.995,0.000,3.565,0.000,0.000,35.367
5832,3.705,1.625,1.008,0.000,3.610,0.000,0.000,35.361
5859,3.707,1.625,1.020,0.000,3.656,0.000,0.000,35.374
5886,3.710,1.625,1.032,0.000,3.701,0.000,0.000,35.410
5913,3.712,1.625,1.044,0.000,3.746,0.000,0.000,35.413
5940,3.715,1.625,1.056,0.000,3.791,0.000,0.000,35.427
5967,3.717,1.625,1.069,0.000,3.837,0.000,0.000,35.410
5994,3.720,1.625,1.081,0.000,3.882,0.000,0.000,35.439
6021,3.722,1.625,1.093,0.000,3.927,0.000,0.000,35.429
6048,3.725,1.625,1.105,0.000,3.973,0.000,0.000,35.410
6075,3.727,1.625,1.117,0.000,4.018,0.000,0.000,35.466
6102,3.730,1.625,1.130,0.000,4.064,0.000,0.000,35.501
6129,3.732,1.625,1.142,0.000,4.109,0.000,0.000,35.454
6156,3.734,1.625,1.154,0.000,4.154,0.000,0.000,35.490
6183,3.737,1.625,1.166,0.000,4.200,0.000,0.000,35.489
6210,3.739,1.625,1.178,0.000,4.246,0.000,0.000,35.513
6237,3.741,1.625,1.190,0.000,4.291,0.000,0.000,35.509
6264,3.743,1.625,1.203,0.000,4.337,0.000,0.000,35.523
6291,3.746,1.625,1.215,0.000,4.382,0.000,0.000,35.561
6318,3.748,1.625,1.227,0.000,4.428,0.000,0.000,35.584
6345,3.750,1.625,1.239,0.000,4.474,0.000,0.000,35.556
6372,3.752,1.625,1.251,0.000,4.520,0.000,0.000,35.538
6399,3.755,1.625,1.264,0.000,4.565,0.000,0.000,35.539
6426,3.757,1.625,1.276,0.000,4.611,0.000,0.000,35.565
6453,3.759,1.625,1.288,0.000,4.657,0.000,0.000,35.559
6480,3.761,1.625,1.300,0.000,4.703,0.000,0.000,35.587
6507,3.764,1.625,1.312,0.000,4.749,0.000,0.000,35.585
6534,3.766,1.625,1.325,0.000,4.794,0.000,0.000,35.586
6561,3.768,1.625,1.337,0.000,4.840,0.000,0.000,35.589
6588,3.771,1.625,1.349,0.000,4.886,0.000,0.000,35.632
6615,3.773,1.625,1.361,0.000,4.932,0.000,0.000,35.570
6642,3.775,1.625,1.373,0.000,4.978,0.000,0.000,35.610
6669,3.778,1.625,1.386,0.000,5.024,0.000,0.000,35.643
6696,3.780,1.625,1.398,0.000,5.070,0.000,0.000,35.603
6723,3.782,1.625,1.410,0.000,5.116,0.000,0.000,35.625
6750,3.785,1.625,1.422,0.000,5.163,0.000,0.000,35.594
6777,3.787,1.625,1.434,0.000,5.209,0.000,0.000,35.595
6804,3.790,1.625,1.446,0.000,5.255,0.000,0.000,35.628
6831,3.792,1.625,1.459,0.000,5.301,0.000,0.000,35.609
6858,3.795,1.625,1.471,0.000,5.347,0.000,0.000,35.636
6885,3.797,1.625,1.483,0.000,5.394,0.000,0.000,35.619
6912,3.800,1.625,1.495,0.000,5.440,0.000,0.000,35.604
6939,3.802,1.625,1.507,0.000,5.486,0.000,0.000,35.668
6966,3.805,1.625,1.520,0.000,5.533,0.000,0.000,35.647
6993,3.807,1.625,1.532,0.000,5.579,0.000,0.000,35.633
7020,3.810,1.625,1.544,0.000,5.625,0.000,0.000,35.626
7047,3.813,1.625,1.556,0.000,5.672,0.000,0.000,35.624
7074,3.816,1.625,1.568,0.000,5.718,0.000,0.000,35.614
7101,3.818,1.625,1.581,0.000,5.765,0.000,0.000,35.633
7128,3.821,1.625,1.593,0.000,5.811,0.000,0.000,35.660
7155,3.824,1.625,1.605,0.000,5.858,0.000,0.000,35.670
7182,3.827,1.625,1.617,0.000,5.905,0.000,0.000,35.627
7209,3.830,1.625,1.629,0.000,5.951,0.000,0.000,35.696
7236,3.832,1.625,1.641,0.000,5.998,0.000,0.000,35.626
7263,3.835,1.625,1.654,0.000,6.045,0.000,0.000,35.669
7290,3.838,1.625,1.666,0.000,6.092,0.000,0.000,35.654
7317,3.841,1.625,1.678,0.000,6.138,0.000,0.000,35.663
7344,3.844,1.625,1.690,0.000,6.185,0.000,0.000,35.697
7371,3.847,1.625,1.702,0.000,6.232,0.000,0.000,35.656
7398,3.851,1.625,1.715,0.000,6.279,0.000,0.000,35.643
7425,3.853,1.625,1.727,0.000,6.326,0.000,0.000,35.670
7452,3.857,1.625,1.739,0.000,6.373,0.000,0.000,35.708
7479,3.860,1.625,1.751,0.000,6.420,0.000,0.000,35.671
7506,3.863,1.625,1.763,0.000,6.467,0.000,0.000,35.720
7533,3.866,1.625,1.776,0.000,6.514,0.000,0.000,35.670
7560,3.869,1.625,1.788,0.000,6.561,0.000,0.000,35.674
7587,3.873,1.625,1.800,0.000,6.608,0.000,0.000,35.722
7614,3.876,1.625,1.812,0.000,6.656,0.000,0.000,35.689
7641,3.879,1.625,1.824,0.000,6.703,0.000,0.000,35.690
7668,3.883,1.625,1.837,0.000,6.750,0.000,0.000,35.730
7695,3.886,1.625,1.849,0.000,6.798,0.000,0.000,35.687
7722,3.889,1.625,1.861,0.000,6.845,0.000,0.000,35.720
7749,3.892,1.625,1.873,0.000,6.892,0.000,0.000,35.677
7776,3.896,1.625,1.885,0.000,6.940,0.000,0.000,35.684
7803,3.899,1.625,1.897,0.000,6.987,0.000,0.000,35.702
7830,3.902,1.625,1.910,0.000,7.035,0.000,0.000,35.717
7857,3.906,1.625,1.922,0.000,7.083,0.000,0.000,35.710
7884,3.909,1.625,1.934,0.000,7.130,0.000,0.000,35.705
7911,3.913,1.625,1.946,0.000,7.178,0.000,0.000,35.670
7938,3.916,1.625,1.958,0.000,7.226,0.000,0.000,35.711
7965,3.920,1.625,1.971,0.000,7.273,0.000,0.000,35.720
7992,3.923,1.625,1.983,0.000,7.321,0.000,0.000,35.741
8019,3.926,1.625,1.995,0.000,7.369,0.000,0.000,35.684
8046,3.930,1.625,2.007,0.000,7.417,0.000,0.000,35.722
8073,3.933,1.625,2.019,0.000,7.465,0.000,0.000,35.687
8100,3.937,1.625,2.032,0.000,7.513,0.000,0.000,35.678
8127,3.940,1.625,2.044,0.000,7.561,0.000,0.000,35.703
8154,3.944,1.625,2.056,0.000,7.609,0.000,0.000,35.663
8181,3.947,1.625,2.068,0.000,7.657,0.000,0.000,35.674
8208,3.951,1.625,2.080,0.000,7.705,0.000,0.000,35.693
8235,3.954,1.625,2.092,0.000,7.753,0.000,0.000,35.675
8262,3.958,1.625,2.105,0.000,7.801,0.000,0.000,35.671
8289,3.961,1.625,2.117,0.000,7.850,0.000,0.000,35.686
8316,3.964,1.625,2.129,0.000,7.898,0.000,0.000,35.634
8343,3.968,1.625,2.141,0.000,7.946,0.000,0.000,35.649
8370,3.971,1.625,2.153,0.000,7.995,0.000,0.000,35.643
8397,3.975,1.625,2.166,0.000,8.043,0.000,0.000,35.633
8424,3.978,1.625,2.178,0.000,8.092,0.000,0.000,35.652
8451,3.982,1.625,2.190,0.000,8.140,0.000,0.000,35.636
8478,3.985,1.625,2.202,0.000,8.189,0.000,0.000,35.607
8505,3.988,1.625,2.214,0.000,8.237,0.000,0.000,35.706
8532,3.992,1.625,2.227,0.000,8.286,0.000,0.000,35.689
8559,3.995,1.625,2.239,0.000,8.335,0.000,0.000,35.664
8586,3.999,1.625,2.251,0.000,8.383,0.000,0.000,35.636
8613,4.002,1.625,2.263,0.000,8.432,0.000,0.000,35.629
8640,4.005,1.625,2.275,0.000,8.481,0.000,0.000,35.628
8667,4.009,1.625,2.288,0.000,8.530,0.000,0.000,35.629
8694,4.012,1.625,2.300,0.000,8.579,0.000,0.000,35.632
8721,4.015,1.625,2.312,0.000,8.627,0.000,0.000,35.623
8748,4.019,1.625,2.324,0.000,8.676,0.000,0.000,35.609
8775,4.022,1.625,2.336,0.000,8.725,0.000,0.000,35.654
8802,4.025,1.625,2.348,0.000,8.774,0.000,0.000,35.611
8829,4.029,1.625,2.361,0.000,8.824,0.000,0.000,35.644
8856,4.032,1.625,2.373,0.000,8.873,0.000,0.000,35.613
8883,4.036,1.625,2.385,0.000,8.922,0.000,0.000,35.603
8910,4.039,1.625,2.397,0.000,8.971,0.000,0.000,35.632
8937,4.043,1.625,2.409,0.000,9.020,0.000,0.000,35.604
8964,4.046,1.625,2.422,0.000,9.070,0.000,0.000,35.612
8991,4.050,1.625,2.434,0.000,9.119,0.000,0.000,35.614
9018,4.053,1.625,2.446,0.000,9.168,0.000,0.000,35.630
9045,4.056,1.625,2.458,0.000,9.218,0.000,0.000,35.588
9072,4.060,1.625,2.470,0.000,9.267,0.000,0.000,35.621
9099,4.064,1.625,2.483,0.000,9.317,0.000,0.000,35.606
9126,4.067,1.625,2.495,0.000,9.366,0.000,0.000,35.640
9153,4.071,1.625,2.507,0.000,9.416,0.000,0.000,35.620
9180,4.075,1.625,2.519,0.000,9.466,0.000,0.000,35.612
9207,4.078,1.625,2.531,0.000,9.515,0.000,0.000,35.610
9234,4.082,1.625,2.543,0.000,9.565,0.000,0.000,35.664
9261,4.086,1.625,2.556,0.000,9.615,0.000,0.000,35.652
9288,4.090,1.625,2.568,0.000,9.665,0.000,0.000,35.639
9315,4.094,1.625,2.580,0.000,9.714,0.000,0.000,35.657
9342,4.098,1.625,2.592,0.000,9.764,0.000,0.000,35.684
9369,4.102,1.625,2.604,0.000,9.814,0.000,0.000,35.681
9396,4.106,1.625,2.617,0.000,9.864,0.000,0.000,35.702
9423,4.110,1.625,2.629,0.000,9.914,0.000,0.000,35.698
9450,4.114,1.625,2.641,0.000,9.965,0.000,0.000,35.711
9477,4.119,1.625,2.653,0.000,10.015,0.000,0.000,35.702
9504,4.123,1.625,2.665,0.000,10.065,0.000,0.000,35.687
9531,4.128,1.625,2.678,0.000,10.115,0.000,0.000,35.681
9558,4.132,1.625,2.690,0.000,10.166,0.000,0.000,35.728
9585,4.136,1.625,2.702,0.000,10.216,0.000,0.000,35.699
9612,4.141,1.625,2.714,0.000,10.266,0.000,0.000,35.734
9639,4.146,1.625,2.726,0.000,10.317,0.000,0.000,35.711
9666,4.150,1.625,2.739,0.000,10.368,0.000,0.000,35.768
9693,4.155,1.625,2.751,0.000,10.418,0.000,0.000,35.720
9720,4.160,1.625,2.763,0.000,10.469,0.000,0.000,35.693
9747,4.164,1.625,2.775,0.000,10.520,0.000,0.000,35.760
9774,4.169,1.625,2.787,0.000,10.570,0.000,0.000,35.764
9801,4.174,1.625,2.799,0.000,10.621,0.000,0.000,35.734
9828,4.179,1.625,2.812,0.000,10.672,0.000,0.000,35.791
9855,4.184,1.625,2.824,0.000,10.723,0.000,0.000,35.749
9882,4.189,1.625,2.836,0.000,10.774,0.000,0.000,35.749
9909,4.194,1.625,2.848,0.000,10.825,0.000,0.000,35.791
9936,4.199,1.625,2.860,0.000,10.876,0.000,0.000,35.785
9963,4.200,1.573,2.872,0.000,10.927,0.000,0.000,35.787
9990,4.200,1.515,2.884,0.000,10.975,0.000,0.000,35.717
10017,4.200,1.466,2.895,0.000,11.022,0.000,0.000,35.791
10044,4.200,1.423,2.906,0.000,11.068,0.000,0.000,35.746
10071,4.200,1.383,2.917,0.000,11.112,0.000,0.000,35.771
10098,4.200,1.344,2.927,0.000,11.155,0.000,0.000,35.740
10125,4.200,1.309,2.937,0.000,11.197,0.000,0.000,35.715
10152,4.200,1.274,2.946,0.000,11.237,0.000,0.000,35.692
10179,4.200,1.242,2.956,0.000,11.277,0.000,0.000,35.681
10206,4.200,1.209,2.965,0.000,11.316,0.000,0.000,35.686
10233,4.200,1.180,2.974,0.000,11.353,0.000,0.000,35.642
10260,4.200,1.150,2.983,0.000,11.390,0.000,0.000,35.615
10287,4.200,1.123,2.991,0.000,11.426,0.000,0.000,35.594
10314,4.200,1.096,3.000,0.000,11.461,0.000,0.000,35.556
10341,4.200,1.071,3.008,0.000,11.495,0.000,0.000,35.563
10368,4.200,1.046,3.016,0.000,11.528,0.000,0.000,35.469
10395,4.200,1.023,3.023,0.000,11.561,0.000,0.000,35.437
10422,4.200,1.000,3.031,0.000,11.592,0.000,0.000,35.405
10449,4.200,0.977,3.038,0.000,11.624,0.000,0.000,35.432
10476,4.200,0.956,3.046,0.000,11.654,0.000,0.000,35.347
10503,4.200,0.936,3.053,0.000,11.684,0.000,0.000,35.362
10530,4.200,0.916,3.060,0.000,11.713,0.000,0.000,35.350
10557,4.200,0.898,3.066,0.000,11.742,0.000,0.000,35.316
10584,4.200,0.879,3.073,0.000,11.770,0.000,0.000,35.233
10611,4.200,0.861,3.080,0.000,11.797,0.000,0.000,35.202
10638,4.200,0.844,3.086,0.000,11.824,0.000,0.000,35.219
10665,4.200,0.826,3.092,0.000,11.850,0.000,0.000,35.195
10692,4.200,0.809,3.098,0.000,11.876,0.000,0.000,35.171
10719,4.200,0.794,3.104,0.000,11.901,0.000,0.000,35.154
10746,4.200,0.778,3.110,0.000,11.926,0.000,0.000,35.074
10773,4.200,0.762,3.116,0.000,11.950,0.000,0.000,35.085
10800,4.200,0.746,3.122,0.000,11.974,0.000,0.000,35.054
10827,4.200,0.732,3.127,0.000,11.997,0.000,0.000,35.027
10854,4.200,0.718,3.133,0.000,12.020,0.000,0.000,35.051
10881,4.200,0.702,3.138,0.000,12.042,0.000,0.000,35.007
10908,4.200,0.689,3.143,0.000,12.064,0.000,0.000,35.012
10935,4.200,0.675,3.148,0.000,12.086,0.000,0.000,34.990
10962,4.200,0.661,3.153,0.000,12.107,0.000,0.000,34.975
10989,4.200,0.647,3.158,0.000,12.127,0.000,0.000,34.902
11016,4.200,0.634,3.163,0.000,12.147,0.000,0.000,34.909
11043,4.200,0.621,3.168,0.000,12.167,0.000,0.000,34.888
11070,4.200,0.608,3.172,0.000,12.186,0.000,0.000,34.870
11097,4.200,0.595,3.177,0.000,12.205,0.000,0.000,34.875
11124,4.200,0.582,3.181,0.000,12.224,0.000,0.000,34.831
11151,4.200,0.570,3.186,0.000,12.242,0.000,0.000,34.817
11178,4.200,0.557,3.190,0.000,12.260,0.000,0.000,34.807
11205,4.200,0.545,3.194,0.000,12.277,0.000,0.000,34.828
11232,4.200,0.533,3.198,0.000,12.294,0.000,0.000,34.797
11259,4.200,0.521,3.202,0.000,12.311,0.000,0.000,34.755
11286,4.200,0.510,3.206,0.000,12.327,0.000,0.000,34.756
11313,4.200,0.498,3.210,0.000,12.343,0.000,0.000,34.769
11340,4.200,0.487,3.213,0.000,12.358,0.000,0.000,34.723
11367,4.200,0.475,3.217,0.000,12.373,0.000,0.000,34.724
11394,4.200,0.464,3.220,0.000,12.388,0.000,0.000,34.685
11421,4.200,0.454,3.224,0.000,12.403,0.000,0.000,34.674
11448,4.200,0.443,3.227,0.000,12.417,0.000,0.000,34.646
11475,4.200,0.433,3.230,0.000,12.431,0.000,0.000,34.666
11502,4.200,0.423,3.234,0.000,12.444,0.000,0.000,34.668
11529,4.200,0.412,3.237,0.000,12.457,0.000,0.000,34.638
11556,4.200,0.402,3.240,0.000,12.470,0.000,0.000,34.629
11583,4.200,0.393,3.243,0.000,12.483,0.000,0.000,34.668
11610,4.200,0.383,3.246,0.000,12.495,0.000,0.000,34.624
11637,4.200,0.374,3.249,0.000,12.507,0.000,0.000,34.603
11664,4.200,0.365,3.251,0.000,12.518,0.000,0.000,34.589
11691,4.200,0.355,3.254,0.000,12.530,0.000,0.000,34.553
11718,4.200,0.346,3.257,0.000,12.541,0.000,0.000,34.580
11745,4.200,0.338,3.259,0.000,12.551,0.000,0.000,34.529
11772,4.200,0.330,3.262,0.000,12.562,0.000,0.000,34.557
11799,4.200,0.321,3.264,0.000,12.572,0.000,0.000,34.572
11826,4.200,0.313,3.267,0.000,12.582,0.000,0.000,34.525
11853,4.200,0.304,3.269,0.000,12.592,0.000,0.000,34.489
11880,4.200,0.297,3.271,0.000,12.601,0.000,0.000,34.462
11907,4.200,0.288,3.273,0.000,12.611,0.000,0.000,34.469
11934,4.200,0.282,3.275,0.000,12.620,0.000,0.000,34.485
11961,4.200,0.274,3.278,0.000,12.628,0.000,0.000,34.430
11988,4.200,0.267,3.280,0.000,12.637,0.000,0.000,34.487
12015,4.200,0.260,3.282,0.000,12.645,0.000,0.000,34.443
12042,4.200,0.253,3.283,0.000,12.653,0.000,0.000,34.426
12069,4.200,0.246,3.285,0.000,12.661,0.000,0.000,34.469
12096,4.200,0.240,3.287,0.000,12.669,0.000,0.000,34.478
12123,4.200,0.234,3.289,0.000,12.676,0.000,0.000,34.406
12150,4.200,0.227,3.291,0.000,12.683,0.000,0.000,34.407
12177,4.200,0.221,3.292,0.000,12.690,0.000,0.000,34.441
12204,4.200,0.215,3.294,0.000,12.697,0.000,0.000,34.407
12231,4.200,0.210,3.296,0.000,12.704,0.000,0.000,34.415
12258,4.200,0.204,3.297,0.000,12.711,0.000,0.000,34.432
12285,4.200,0.199,3.299,0.000,12.717,0.000,0.000,34.395
12312,4.200,0.193,3.300,0.000,12.723,0.000,0.000,34.399
12339,4.200,0.189,3.302,0.000,12.729,0.000,0.000,34.420
12366,4.200,0.183,3.303,0.000,12.735,0.000,0.000,34.348
12393,4.200,0.178,3.304,0.000,12.741,0.000,0.000,34.353
12420,4.200,0.174,3.306,0.000,12.746,0.000,0.000,34.360
12447,4.200,0.169,3.307,0.000,12.752,0.000,0.000,34.400
12474,4.200,0.165,3.308,0.000,12.757,0.000,0.000,34.390
12501,4.200,0.160,3.309,0.000,12.762,0.000,0.000,34.406
12528,4.200,0.156,3.311,0.000,12.767,0.000,0.000,34.348
12555,4.200,0.152,3.312,0.000,12.772,0.000,0.000,34.351
12582,4.200,0.149,3.313,0.000,12.777,0.000,0.000,34.345
12609,4.200,0.144,3.314,0.000,12.781,0.000,0.000,34.359
12636,4.200,0.140,3.315,0.000,12.786,0.000,0.000,34.327
12663,4.200,0.136,3.316,0.000,12.790,0.000,0.000,34.350
12690,4.200,0.133,3.317,0.000,12.794,0.000,0.000,34.294
12717,4.200,0.130,3.318,0.000,12.798,0.000,0.000,34.265
12744,4.200,0.127,3.319,0.000,12.802,0.000,0.000,34.304
12771,4.200,0.123,3.320,0.000,12.806,0.000,0.000,34.302
12798,4.200,0.120,3.321,0.000,12.810,0.000,0.000,34.307
12825,4.200,0.117,3.322,0.000,12.814,0.000,0.000,34.302
12852,4.200,0.114,3.323,0.000,12.818,0.000,0.000,34.285
12879,4.200,0.111,3.323,0.000,12.821,0.000,0.000,34.269
12906,4.200,0.108,3.324,0.000,12.825,0.000,0.000,34.293
12933,4.200,0.106,3.325,0.000,12.828,0.000,0.000,34.277
12960,4.200,0.103,3.326,0.000,12.831,0.000,0.000,34.261
12987,4.200,0.100,3.327,0.000,12.834,0.000,0.000,34.260
13014,4.200,0.098,3.327,0.000,12.838,0.000,0.000,34.266
13041,4.200,0.096,3.328,0.000,12.841,0.000,0.000,34.239
13068,4.200,0.093,3.329,0.000,12.844,0.000,0.000,34.272
13095,4.200,0.091,3.329,0.000,12.846,0.000,0.000,34.317
13122,4.200,0.089,3.330,0.000,12.849,0.000,0.000,34.279
13149,4.200,0.086,3.331,0.000,12.852,0.000,0.000,34.275
13176,4.200,0.085,3.331,0.000,12.855,0.000,0.000,34.269
13203,4.200,0.082,3.332,0.000,12.857,0.000,0.000,34.263
13230,4.200,0.080,3.333,0.000,12.860,0.000,0.000,34.278
13257,4.200,0.079,3.333,0.000,12.862,0.000,0.000,34.259
13284,4.200,0.076,3.334,0.000,12.865,0.000,0.000,34.278
13311,4.200,0.075,3.334,0.000,12.867,0.000,0.000,34.287
13338,4.200,0.073,3.335,0.000,12.869,0.000,0.000,34.222
13365,4.200,0.071,3.336,0.000,12.872,0.000,0.000,34.260
13392,4.200,0.069,3.336,0.000,12.874,0.000,0.000,34.275
13419,4.200,0.068,3.337,0.000,12.876,0.000,0.000,34.247
13446,4.200,0.067,3.337,0.000,12.878,0.000,0.000,34.240
13472,4.195,0.000,3.337,0.000,12.879,0.000,0.000,34.250
13499,4.194,0.000,3.337,0.000,12.879,0.000,0.000,34.246
13526,4.194,0.000,3.337,0.000,12.879,0.000,0.000,34.251
13553,4.193,0.000,3.337,0.000,12.879,0.000,0.000,34.256
13580,4.193,0.000,3.337,0.000,12.879,0.000,0.000,34.254
13607,4.192,0.000,3.337,0.000,12.879,0.000,0.000,34.246
13634,4.192,0.000,3.337,0.000,12.879,0.000,0.000,34.239
13661,4.192,0.000,3.337,0.000,12.879,0.000,0.000,34.242
13688,4.191,0.000,3.337,0.000,12.879,0.000,0.000,34.250
13715,4.191,0.000,3.337,0.000,12.879,0.000,0.000,34.252
13742,4.191,0.000,3.337,0.000,12.879,0.000,0.000,34.200
13769,4.191,0.000,3.337,0.000,12.879,0.000,0.000,34.242
13796,4.190,0.000,3.337,0.000,12.879,0.000,0.000,34.218
13823,4.190,0.000,3.337,0.000,12.879,0.000,0.000,34.226
13850,4.190,0.000,3.337,0.000,12.879,0.000,0.000,34.212
13877,4.190,0.000,3.337,0.000,12.879,0.000,0.000,34.199
13904,4.190,0.000,3.337,0.000,12.879,0.000,0.000,34.251
13931,4.189,0.000,3.337,0.000,12.879,0.000,0.000,34.236
13958,4.189,0.000,3.337,0.000,12.879,0.000,0.000,34.207
13985,4.189,0.000,3.337,0.000,12.879,0.000,0.000,34.199
14012,4.189,0.000,3.337,0.000,12.879,0.000,0.000,34.203
14039,4.189,0.000,3.337,0.000,12.879,0.000,0.000,34.237
14066,4.188,0.000,3.337,0.000,12.879,0.000,0.000,34.242
14093,4.188,0.000,3.337,0.000,12.879,0.000,0.000,34.222
14120,4.188,0.000,3.337,0.000,12.879,0.000,0.000,34.213
14147,4.188,0.000,3.337,0.000,12.879,0.000,0.000,34.241
14174,4.188,0.000,3.337,0.000,12.879,0.000,0.000,34.210
14201,4.188,0.000,3.337,0.000,12.879,0.000,0.000,34.211
14228,4.188,0.000,3.337,0.000,12.879,0.000,0.000,34.201
14255,4.188,0.000,3.337,0.000,12.879,0.000,0.000,34.184
14282,4.187,0.000,3.337,0.000,12.879,0.000,0.000,34.195
14309,4.187,0.000,3.337,0.000,12.879,0.000,0.000,34.216
14336,4.187,0.000,3.337,0.000,12.879,0.000,0.000,34.207
14363,4.187,0.000,3.337,0.000,12.879,0.000,0.000,34.230
14390,4.187,0.000,3.337,0.000,12.879,0.000,0.000,34.202
14417,4.187,0.000,3.337,0.000,12.879,0.000,0.000,34.237
14444,4.187,0.000,3.337,0.000,12.879,0.000,0.000,34.236
14471,4.187,0.000,3.337,0.000,12.879,0.000,0.000,34.178
14498,4.186,0.000,3.337,0.000,12.879,0.000,0.000,34.228
14525,4.186,0.000,3.337,0.000,12.879,0.000,0.000,34.223
14552,4.186,0.000,3.337,0.000,12.879,0.000,0.000,34.210
14579,4.186,0.000,3.337,0.000,12.879,0.000,0.000,34.224
14606,4.186,0.000,3.337,0.000,12.879,0.000,0.000,34.213
14633,4.186,0.000,3.337,0.000,12.879,0.000,0.000,34.233
14660,4.186,0.000,3.337,0.000,12.879,0.000,0.000,34.253
14687,4.186,0.000,3.337,0.000,12.879,0.000,0.000,34.225
14714,4.186,0.000,3.337,0.000,12.879,0.000,0.000,34.227
14741,4.186,0.000,3.337,0.000,12.879,0.000,0.000,34.220
14768,4.186,0.000,3.337,0.000,12.879,0.000,0.000,34.232
14795,4.185,0.000,3.337,0.000,12.879,0.000,0.000,34.219
14822,4.185,0.000,3.337,0.000,12.879,0.000,0.000,34.241
14849,4.185,0.000,3.337,0.000,12.879,0.000,0.000,34.234
14876,4.185,0.000,3.337,0.000,12.879,0.000,0.000,34.230
14903,4.185,0.000,3.337,0.000,12.879,0.000,0.000,34.247
14930,4.185,0.000,3.337,0.000,12.879,0.000,0.000,34.245
14957,4.185,0.000,3.337,0.000,12.879,0.000,0.000,34.165
14984,4.185,0.000,3.337,0.000,12.879,0.000,0.000,34.221
15011,4.185,0.000,3.337,0.000,12.879,0.000,0.000,34.229
15038,4.185,0.000,3.337,0.000,12.879,0.000,0.000,34.236
15065,4.185,0.000,3.337,0.000,12.879,0.000,0.000,34.218
15092,4.185,0.000,3.337,0.000,12.879,0.000,0.000,34.195
15119,4.184,0.000,3.337,0.000,12.879,0.000,0.000,34.232
15146,4.184,0.000,3.337,0.000,12.879,0.000,0.000,34.222
15173,4.184,0.000,3.337,0.000,12.879,0.000,0.000,34.238
15200,4.184,0.000,3.337,0.000,12.879,0.000,0.000,34.256
15227,4.184,0.000,3.337,0.000,12.879,0.000,0.000,34.214
15254,4.184,0.000,3.337,0.000,12.879,0.000,0.000,34.230
15281,4.184,0.000,3.337,0.000,12.879,0.000,0.000,34.197
15308,4.184,0.000,3.337,0.000,12.879,0.000,0.000,34.197
15335,4.184,0.000,3.337,0.000,12.879,0.000,0.000,34.190
15362,4.184,0.000,3.337,0.000,12.879,0.000,0.000,34.204
15389,4.184,0.000,3.337,0.000,12.879,0.000,0.000,34.235
15416,4.184,0.000,3.337,0.000,12.879,0.000,0.000,34.233
15443,4.184,0.000,3.337,0.000,12.879,0.000,0.000,34.222
15470,4.184,0.000,3.337,0.000,12.879,0.000,0.000,34.210
15497,4.184,0.000,3.337,0.000,12.879,0.000,0.000,34.217
15524,4.184,0.000,3.337,0.000,12.879,0.000,0.000,34.207
15551,4.184,0.000,3.337,0.000,12.879,0.000,0.000,34.225
15578,4.183,0.000,3.337,0.000,12.879,0.000,0.000,34.254
15605,4.183,0.000,3.337,0.000,12.879,0.000,0.000,34.180
15632,4.183,0.000,3.337,0.000,12.879,0.000,0.000,34.183
15659,4.183,0.000,3.337,0.000,12.879,0.000,0.000,34.268
15686,4.183,0.000,3.337,0.000,12.879,0.000,0.000,34.231
15713,4.183,0.000,3.337,0.000,12.879,0.000,0.000,34.252
15740,4.183,0.000,3.337,0.000,12.879,0.000,0.000,34.218
15767,4.183,0.000,3.337,0.000,12.879,0.000,0.000,34.250
15794,4.183,0.000,3.337,0.000,12.879,0.000,0.000,34.225
15821,4.183,0.000,3.337,0.000,12.879,0.000,0.000,34.211
15848,4.183,0.000,3.337,0.000,12.879,0.000,0.000,34.190
15875,4.183,0.000,3.337,0.000,12.879,0.000,0.000,34.196
15902,4.183,0.000,3.337,0.000,12.879,0.000,0.000,34.225
15929,4.183,0.000,3.337,0.000,12.879,0.000,0.000,34.200
15956,4.183,0.000,3.337,0.000,12.879,0.000,0.000,34.223
15983,4.183,0.000,3.337,0.000,12.879,0.000,0.000,34.224
16010,4.183,0.000,3.337,0.000,12.879,0.000,0.000,34.203
16037,4.183,0.000,3.337,0.000,12.879,0.000,0.000,34.212
16064,4.183,0.000,3.337,0.000,12.879,0.000,0.000,34.232
16091,4.183,0.000,3.337,0.000,12.879,0.000,0.000,34.223
16118,4.183,0.000,3.337,0.000,12.879,0.000,0.000,34.169
16145,4.183,0.000,3.337,0.000,12.879,0.000,0.000,34.187
16172,4.182,0.000,3.337,0.000,12.879,0.000,0.000,34.205
16199,4.182,0.000,3.337,0.000,12.879,0.000,0.000,34.207
16226,4.182,0.000,3.337,0.000,12.879,0.000,0.000,34.203
16253,4.182,0.000,3.337,0.000,12.879,0.000,0.000,34.205
16280,4.182,0.000,3.337,0.000,12.879,0.000,0.000,34.153
16307,4.182,0.000,3.337,0.000,12.879,0.000,0.000,34.176
16334,4.182,0.000,3.337,0.000,12.879,0.000,0.000,34.210
16361,4.182,0.000,3.337,0.000,12.879,0.000,0.000,34.213
16388,4.182,0.000,3.337,0.000,12.879,0.000,0.000,34.173
16415,4.182,0.000,3.337,0.000,12.879,0.000,0.000,34.148
16442,4.182,0.000,3.337,0.000,12.879,0.000,0.000,34.164
16469,4.182,0.000,3.337,0.000,12.879,0.000,0.000,34.160
16496,4.182,0.000,3.337,0.000,12.879,0.000,0.000,34.219
16523,4.182,0.000,3.337,0.000,12.879,0.000,0.000,34.204
16550,4.182,0.000,3.337,0.000,12.879,0.000,0.000,34.209
16577,4.182,0.000,3.337,0.000,12.879,0.000,0.000,34.214
16604,4.182,0.000,3.337,0.000,12.879,0.000,0.000,34.205
16631,4.182,0.000,3.337,0.000,12.879,0.000,0.000,34.183
16658,4.182,0.000,3.337,0.000,12.879,0.000,0.000,34.224
16685,4.182,0.000,3.337,0.000,12.879,0.000,0.000,34.188
16712,4.182,0.000,3.337,0.000,12.879,0.000,0.000,34.196
16739,4.182,0.000,3.337,0.000,12.879,0.000,0.000,34.212
16766,4.182,0.000,3.337,0.000,12.879,0.000,0.000,34.200
16793,4.181,0.000,3.337,0.000,12.879,0.000,0.000,34.196
16820,4.182,0.000,3.337,0.000,12.879,0.000,0.000,34.220
16847,4.182,0.000,3.337,0.000,12.879,0.000,0.000,34.192
16874,4.181,0.000,3.337,0.000,12.879,0.000,0.000,34.200
16901,4.181,0.000,3.337,0.000,12.879,0.000,0.000,34.204
16928,4.181,0.000,3.337,0.000,12.879,0.000,0.000,34.224
16955,4.181,0.000,3.337,0.000,12.879,0.000,0.000,34.243
16982,4.181,0.000,3.337,0.000,12.879,0.000,0.000,34.212
17009,4.181,0.000,3.337,0.000,12.879,0.000,0.000,34.190
17036,4.181,0.000,3.337,0.000,12.879,0.000,0.000,34.219
17062,3.969,-3.350,3.337,0.001,12.879,0.004,-0.212,34.233
17089,3.920,-3.350,3.337,0.026,12.879,0.103,-0.001,34.292
17116,3.901,-3.350,3.337,0.051,12.879,0.201,0.000,34.505
17143,3.887,-3.350,3.337,0.076,12.879,0.299,0.000,34.663
17170,3.877,-3.350,3.337,0.101,12.879,0.396,0.000,34.875
17197,3.868,-3.350,3.337,0.127,12.879,0.494,0.000,35.073
17224,3.860,-3.350,3.337,0.152,12.879,0.591,0.000,35.193
17251,3.852,-3.350,3.337,0.177,12.879,0.688,0.000,35.347
17278,3.844,-3.350,3.337,0.202,12.879,0.784,0.000,35.480
17305,3.837,-3.350,3.337,0.227,12.879,0.881,0.000,35.582
17332,3.829,-3.350,3.337,0.252,12.879,0.977,0.000,35.734
17359,3.821,-3.350,3.337,0.277,12.879,1.073,0.000,35.861
17386,3.813,-3.350,3.337,0.302,12.879,1.169,0.000,35.925
17413,3.805,-3.350,3.337,0.328,12.879,1.265,0.000,36.020
17440,3.796,-3.350,3.337,0.353,12.879,1.360,0.000,36.134
17467,3.787,-3.350,3.337,0.378,12.879,1.456,0.000,36.142
17494,3.779,-3.350,3.337,0.403,12.879,1.551,0.000,36.261
17521,3.770,-3.350,3.337,0.428,12.879,1.645,0.000,36.307
17548,3.761,-3.350,3.337,0.453,12.879,1.740,0.000,36.405
17575,3.752,-3.350,3.337,0.478,12.879,1.834,0.000,36.423
17602,3.742,-3.350,3.337,0.503,12.879,1.929,0.000,36.483
17629,3.733,-3.350,3.337,0.529,12.879,2.023,0.000,36.483
17656,3.725,-3.350,3.337,0.554,12.879,2.116,0.000,36.540
17683,3.716,-3.350,3.337,0.579,12.879,2.210,0.000,36.597
17710,3.707,-3.350,3.337,0.604,12.879,2.303,0.000,36.617
17737,3.699,-3.350,3.337,0.629,12.879,2.396,0.000,36.627
17764,3.691,-3.350,3.337,0.654,12.879,2.489,0.000,36.667
17791,3.683,-3.350,3.337,0.679,12.879,2.581,0.000,36.691
17818,3.675,-3.350,3.337,0.705,12.879,2.674,0.000,36.695
17845,3.667,-3.350,3.337,0.730,12.879,2.766,0.000,36.668
17872,3.659,-3.350,3.337,0.755,12.879,2.858,0.000,36.732
17899,3.652,-3.350,3.337,0.780,12.879,2.950,0.000,36.748
17926,3.644,-3.350,3.337,0.805,12.879,3.042,0.000,36.774
17953,3.637,-3.350,3.337,0.830,12.879,3.133,0.000,36.804
17980,3.630,-3.350,3.337,0.855,12.879,3.224,0.000,36.854
18007,3.623,-3.350,3.337,0.880,12.879,3.316,0.000,36.897
18034,3.615,-3.350,3.337,0.906,12.879,3.407,0.000,36.878
18061,3.608,-3.350,3.337,0.931,12.879,3.497,0.000,36.918
18088,3.601,-3.350,3.337,0.956,12.879,3.588,0.000,36.928
18115,3.593,-3.350,3.337,0.981,12.879,3.678,0.000,36.963
18142,3.586,-3.350,3.337,1.006,12.879,3.768,0.000,37.020
18169,3.578,-3.350,3.337,1.031,12.879,3.858,0.000,37.000
18196,3.571,-3.350,3.337,1.056,12.879,3.948,0.000,37.009
18223,3.563,-3.350,3.337,1.081,12.879,4.038,0.000,37.095
18250,3.556,-3.350,3.337,1.107,12.879,4.127,0.000,37.100
18277,3.548,-3.350,3.337,1.132,12.879,4.217,0.000,37.089
18304,3.540,-3.350,3.337,1.157,12.879,4.306,-0.001,37.162
18331,3.532,-3.350,3.337,1.182,12.879,4.395,0.000,37.201
18358,3.525,-3.350,3.337,1.207,12.879,4.483,0.000,37.193
18385,3.517,-3.350,3.337,1.232,12.879,4.572,0.000,37.206
18412,3.509,-3.350,3.337,1.257,12.879,4.660,0.000,37.249
18439,3.501,-3.350,3.337,1.282,12.879,4.748,0.000,37.287
18466,3.493,-3.350,3.337,1.308,12.879,4.836,0.000,37.339
18493,3.485,-3.350,3.337,1.333,12.879,4.923,0.000,37.360
18520,3.477,-3.350,3.337,1.358,12.879,5.011,0.000,37.310
18547,3.469,-3.350,3.337,1.383,12.879,5.098,0.000,37.392
18574,3.461,-3.350,3.337,1.408,12.879,5.185,0.000,37.339
18601,3.454,-3.350,3.337,1.433,12.879,5.272,0.000,37.407
18628,3.446,-3.350,3.337,1.458,12.879,5.359,0.000,37.437
18655,3.438,-3.350,3.337,1.483,12.879,5.445,0.000,37.464
18682,3.431,-3.350,3.337,1.509,12.879,5.532,0.000,37.466
18709,3.424,-3.350,3.337,1.534,12.879,5.618,0.000,37.494
18736,3.416,-3.350,3.337,1.559,12.879,5.704,0.000,37.491
18763,3.409,-3.350,3.337,1.584,12.879,5.789,0.000,37.542
18790,3.402,-3.350,3.337,1.609,12.879,5.875,0.000,37.601
18817,3.395,-3.350,3.337,1.634,12.879,5.960,0.000,37.595
18844,3.389,-3.350,3.337,1.659,12.879,6.046,0.000,37.586
18871,3.382,-3.350,3.337,1.684,12.879,6.131,0.000,37.691
18898,3.376,-3.350,3.337,1.710,12.879,6.216,0.000,37.655
18925,3.369,-3.350,3.337,1.735,12.879,6.300,0.000,37.667
18952,3.363,-3.350,3.337,1.760,12.879,6.385,0.000,37.705
18979,3.357,-3.350,3.337,1.785,12.879,6.469,0.000,37.747
19006,3.351,-3.350,3.337,1.810,12.879,6.554,0.000,37.748
19033,3.345,-3.350,3.337,1.835,12.879,6.638,0.000,37.781
19060,3.339,-3.350,3.337,1.860,12.879,6.722,0.000,37.825
19087,3.334,-3.350,3.337,1.885,12.879,6.806,0.000,37.826
19114,3.328,-3.350,3.337,1.911,12.879,6.889,0.000,37.874
19141,3.323,-3.350,3.337,1.936,12.879,6.973,0.000,37.894
19168,3.317,-3.350,3.337,1.961,12.879,7.056,0.000,37.967
19195,3.312,-3.350,3.337,1.986,12.879,7.140,0.000,37.953
19222,3.306,-3.350,3.337,2.011,12.879,7.223,0.000,37.954
19249,3.301,-3.350,3.337,2.036,12.879,7.306,0.000,37.997
19276,3.296,-3.350,3.337,2.061,12.879,7.389,0.000,38.017
19303,3.290,-3.350,3.337,2.087,12.879,7.471,0.000,38.065
19330,3.284,-3.350,3.337,2.112,12.879,7.554,0.000,38.072
19357,3.279,-3.350,3.337,2.137,12.879,7.636,0.000,38.096
19384,3.273,-3.350,3.337,2.162,12.879,7.719,0.000,38.147
19411,3.267,-3.350,3.337,2.187,12.879,7.801,0.000,38.200
19438,3.261,-3.350,3.337,2.212,12.879,7.883,0.000,38.135
19465,3.256,-3.350,3.337,2.237,12.879,7.965,0.000,38.170
19492,3.249,-3.350,3.337,2.262,12.879,8.047,0.000,38.216
19519,3.243,-3.350,3.337,2.288,12.879,8.128,0.000,38.260
19546,3.236,-3.350,3.337,2.313,12.879,8.210,0.000,38.244
19573,3.230,-3.350,3.337,2.338,12.879,8.291,0.000,38.279
19600,3.223,-3.350,3.337,2.363,12.879,8.372,0.000,38.361
19627,3.216,-3.350,3.337,2.388,12.879,8.453,0.000,38.347
19654,3.209,-3.350,3.337,2.413,12.879,8.533,0.000,38.331
19681,3.201,-3.350,3.337,2.438,12.879,8.614,0.000,38.399
19708,3.194,-3.350,3.337,2.463,12.879,8.694,0.000,38.378
19735,3.186,-3.350,3.337,2.489,12.879,8.774,0.000,38.458
19762,3.177,-3.350,3.337,2.514,12.879,8.854,0.000,38.449
19789,3.169,-3.350,3.337,2.539,12.879,8.934,0.000,38.531
19816,3.160,-3.350,3.337,2.564,12.879,9.014,0.000,38.566
19843,3.151,-3.350,3.337,2.589,12.879,9.093,0.000,38.578
19870,3.141,-3.350,3.337,2.614,12.879,9.172,0.000,38.597
19897,3.131,-3.350,3.337,2.639,12.879,9.251,0.000,38.645
19924,3.121,-3.350,3.337,2.664,12.879,9.329,0.000,38.677
19951,3.111,-3.350,3.337,2.690,12.879,9.408,0.000,38.695
19978,3.099,-3.350,3.337,2.715,12.879,9.486,0.000,38.727
20005,3.088,-3.350,3.337,2.740,12.879,9.563,0.000,38.798
20032,3.076,-3.350,3.337,2.765,12.879,9.641,0.000,38.884
20059,3.063,-3.350,3.337,2.790,12.879,9.718,-0.001,38.960
20086,3.049,-3.350,3.337,2.815,12.879,9.795,-0.001,39.039
20113,3.035,-3.350,3.337,2.840,12.879,9.871,-0.001,39.041
20140,3.019,-3.350,3.337,2.865,12.879,9.947,-0.001,39.165
20167,3.003,-3.350,3.337,2.891,12.879,10.023,-0.001,39.217
20194,2.984,-3.350,3.337,2.916,12.879,10.098,-0.001,39.337
20221,2.964,-3.350,3.337,2.941,12.879,10.173,-0.001,39.513
20248,2.942,-3.350,3.337,2.966,12.879,10.247,-0.001,39.554
20275,2.917,-3.350,3.337,2.991,12.879,10.321,-0.001,39.749
20302,2.890,-3.350,3.337,3.016,12.879,10.394,-0.001,39.895
20329,2.859,-3.350,3.337,3.041,12.879,10.466,-0.001,40.074
20356,2.824,-3.350,3.337,3.066,12.879,10.537,-0.001,40.263
20383,2.784,-3.350,3.337,3.092,12.879,10.608,-0.001,40.575
20410,2.738,-3.350,3.337,3.117,12.879,10.677,-0.002,40.794
20437,2.686,-3.350,3.337,3.142,12.879,10.745,-0.002,41.090
20464,2.623,-3.350,3.337,3.167,12.879,10.812,-0.002,41.444
20491,2.546,-3.350,3.337,3.192,12.879,10.877,-0.003,41.827
20518,3.108,0.000,3.337,3.205,12.879,10.909,0.004,42.140
20545,3.168,0.000,3.337,3.205,12.879,10.909,0.001,41.684
20572,3.195,0.000,3.337,3.205,12.879,10.909,0.001,41.141
20599,3.210,0.000,3.337,3.205,12.879,10.909,0.000,40.559
20626,3.220,0.000,3.337,3.205,12.879,10.909,0.000,40.019
20653,3.226,0.000,3.337,3.205,12.879,10.909,0.000,39.517
20680,3.231,0.000,3.337,3.205,12.879,10.909,0.000,39.096
20707,3.235,0.000,3.337,3.205,12.879,10.909,0.000,38.761
20734,3.237,0.000,3.337,3.205,12.879,10.909,0.000,38.412
20761,3.240,0.000,3.337,3.205,12.879,10.909,0.000,38.081
20788,3.241,0.000,3.337,3.205,12.879,10.909,0.000,37.782
20815,3.243,0.000,3.337,3.205,12.879,10.909,0.000,37.527
20842,3.244,0.000,3.337,3.205,12.879,10.909,0.000,37.258
20869,3.245,0.000,3.337,3.205,12.879,10.909,0.000,37.065
20896,3.246,0.000,3.337,3.205,12.879,10.909,0.000,36.830
20923,3.247,0.000,3.337,3.205,12.879,10.909,0.000,36.604
20950,3.248,0.000,3.337,3.205,12.879,10.909,0.000,36.474
20977,3.249,0.000,3.337,3.205,12.879,10.909,0.000,36.351
21004,3.249,0.000,3.337,3.205,12.879,10.909,0.000,36.123
21031,3.250,0.000,3.337,3.205,12.879,10.909,0.000,35.979
21058,3.251,0.000,3.337,3.205,12.879,10.909,0.000,35.902
21085,3.251,0.000,3.337,3.205,12.879,10.909,0.000,35.781
21112,3.252,0.000,3.337,3.205,12.879,10.909,0.000,35.652
21139,3.252,0.000,3.337,3.205,12.879,10.909,0.000,35.586
21166,3.253,0.000,3.337,3.205,12.879,10.909,0.000,35.467
21193,3.253,0.000,3.337,3.205,12.879,10.909,0.000,35.438
21220,3.254,0.000,3.337,3.205,12.879,10.909,0.000,35.337
21247,3.254,0.000,3.337,3.205,12.879,10.909,0.000,35.201
21274,3.254,0.000,3.337,3.205,12.879,10.909,0.000,35.163
21301,3.254,0.000,3.337,3.205,12.879,10.909,0.000,35.149
21328,3.255,0.000,3.337,3.205,12.879,10.909,0.000,35.066
21355,3.255,0.000,3.337,3.205,12.879,10.909,0.000,34.982
21382,3.256,0.000,3.337,3.205,12.879,10.909,0.000,34.897
21409,3.256,0.000,3.337,3.205,12.879,10.909,0.000,34.861
21436,3.256,0.000,3.337,3.205,12.879,10.909,0.000,34.866
21463,3.256,0.000,3.337,3.205,12.879,10.909,0.000,34.813
21490,3.257,0.000,3.337,3.205,12.879,10.909,0.000,34.782
21517,3.257,0.000,3.337,3.205,12.879,10.909,0.000,34.765
21544,3.257,0.000,3.337,3.205,12.879,10.909,0.000,34.702
21571,3.257,0.000,3.337,3.205,12.879,10.909,0.000,34.667
21598,3.258,0.000,3.337,3.205,12.879,10.909,0.000,34.683
21625,3.258,0.000,3.337,3.205,12.879,10.909,0.000,34.631
21652,3.258,0.000,3.337,3.205,12.879,10.909,0.000,34.594
21679,3.258,0.000,3.337,3.205,12.879,10.909,0.000,34.595
21706,3.258,0.000,3.337,3.205,12.879,10.909,0.000,34.588
21733,3.259,0.000,3.337,3.205,12.879,10.909,0.000,34.592
21760,3.259,0.000,3.337,3.205,12.879,10.909,0.000,34.502
21787,3.259,0.000,3.337,3.205,12.879,10.909,0.000,34.502
21814,3.259,0.000,3.337,3.205,12.879,10.909,0.000,34.495
21841,3.259,0.000,3.337,3.205,12.879,10.909,0.000,34.455
21868,3.260,0.000,3.337,3.205,12.879,10.909,0.000,34.493
21895,3.260,0.000,3.337,3.205,12.879,10.909,0.000,34.444
21922,3.260,0.000,3.337,3.205,12.879,10.909,0.000,34.437
21949,3.260,0.000,3.337,3.205,12.879,10.909,0.000,34.416
21976,3.260,0.000,3.337,3.205,12.879,10.909,0.000,34.402
22003,3.260,0.000,3.337,3.205,12.879,10.909,0.000,34.384
22030,3.261,0.000,3.337,3.205,12.879,10.909,0.000,34.391
22057,3.261,0.000,3.337,3.205,12.879,10.909,0.000,34.387
22084,3.261,0.000,3.337,3.205,12.879,10.909,0.000,34.365
22111,3.261,0.000,3.337,3.205,12.879,10.909,0.000,34.394
22138,3.261,0.000,3.337,3.205,12.879,10.909,0.000,34.359
22165,3.261,0.000,3.337,3.205,12.879,10.909,0.000,34.361
22192,3.261,0.000,3.337,3.205,12.879,10.909,0.000,34.379
22219,3.261,0.000,3.337,3.205,12.879,10.909,0.000,34.338
22246,3.262,0.000,3.337,3.205,12.879,10.909,0.000,34.364
22273,3.262,0.000,3.337,3.205,12.879,10.909,0.000,34.314
22300,3.262,0.000,3.337,3.205,12.879,10.909,0.000,34.346
22327,3.262,0.000,3.337,3.205,12.879,10.909,0.000,34.313
22354,3.262,0.000,3.337,3.205,12.879,10.909,0.000,34.351
22381,3.262,0.000,3.337,3.205,12.879,10.909,0.000,34.306
22408,3.262,0.000,3.337,3.205,12.879,10.909,0.000,34.340
22435,3.262,0.000,3.337,3.205,12.879,10.909,0.000,34.280
22462,3.263,0.000,3.337,3.205,12.879,10.909,0.000,34.264
22489,3.263,0.000,3.337,3.205,12.879,10.909,0.000,34.274
22516,3.263,0.000,3.337,3.205,12.879,10.909,0.000,34.278
22543,3.263,0.000,3.337,3.205,12.879,10.909,0.000,34.275
22570,3.263,0.000,3.337,3.205,12.879,10.909,0.000,34.267
22597,3.263,0.000,3.337,3.205,12.879,10.909,0.000,34.299
22624,3.263,0.000,3.337,3.205,12.879,10.909,0.000,34.311
22651,3.264,0.000,3.337,3.205,12.879,10.909,0.000,34.275
22678,3.264,0.000,3.337,3.205,12.879,10.909,0.000,34.212
22705,3.264,0.000,3.337,3.205,12.879,10.909,0.000,34.275
22732,3.264,0.000,3.337,3.205,12.879,10.909,0.000,34.242
22759,3.264,0.000,3.337,3.205,12.879,10.909,0.000,34.314
22786,3.264,0.000,3.337,3.205,12.879,10.909,0.000,34.234
22813,3.264,0.000,3.337,3.205,12.879,10.909,0.000,34.281
22840,3.264,0.000,3.337,3.205,12.879,10.909,0.000,34.279
22867,3.264,0.000,3.337,3.205,12.879,10.909,0.000,34.241
22894,3.264,0.000,3.337,3.205,12.879,10.909,0.000,34.255
22921,3.265,0.000,3.337,3.205,12.879,10.909,0.000,34.245
22948,3.265,0.000,3.337,3.205,12.879,10.909,0.000,34.263
22975,3.265,0.000,3.337,3.205,12.879,10.909,0.000,34.254
23002,3.265,0.000,3.337,3.205,12.879,10.909,0.000,34.267
23029,3.265,0.000,3.337,3.205,12.879,10.909,0.000,34.253
23056,3.265,0.000,3.337,3.205,12.879,10.909,0.000,34.290
23083,3.265,0.000,3.337,3.205,12.879,10.909,0.000,34.266
23110,3.265,0.000,3.337,3.205,12.879,10.909,0.000,34.247
23137,3.265,0.000,3.337,3.205,12.879,10.909,0.000,34.272
23164,3.266,0.000,3.337,3.205,12.879,10.909,0.000,34.280
23191,3.266,0.000,3.337,3.205,12.879,10.909,0.000,34.249
23218,3.266,0.000,3.337,3.205,12.879,10.909,0.000,34.250
23245,3.266,0.000,3.337,3.205,12.879,10.909,0.000,34.243
23272,3.266,0.000,3.337,3.205,12.879,10.909,0.000,34.235
23299,3.266,0.000,3.337,3.205,12.879,10.909,0.000,34.267
23326,3.266,0.000,3.337,3.205,12.879,10.909,0.000,34.273
23353,3.266,0.000,3.337,3.205,12.879,10.909,0.000,34.236
23380,3.266,0.000,3.337,3.205,12.879,10.909,0.000,34.240
23407,3.266,0.000,3.337,3.205,12.879,10.909,0.000,34.236
23434,3.266,0.000,3.337,3.205,12.879,10.909,0.000,34.288
23461,3.267,0.000,3.337,3.205,12.879,10.909,0.000,34.214
23488,3.267,0.000,3.337,3.205,12.879,10.909,0.000,34.243
23515,3.267,0.000,3.337,3.205,12.879,10.909,0.000,34.217
23542,3.267,0.000,3.337,3.205,12.879,10.909,0.000,34.255
23569,3.267,0.000,3.337,3.205,12.879,10.909,0.000,34.216
23596,3.267,0.000,3.337,3.205,12.879,10.909,0.000,34.206
23623,3.267,0.000,3.337,3.205,12.879,10.909,0.000,34.222
23650,3.267,0.000,3.337,3.205,12.879,10.909,0.000,34.239
23677,3.267,0.000,3.337,3.205,12.879,10.909,0.000,34.235
23704,3.267,0.000,3.337,3.205,12.879,10.909,0.000,34.206
23731,3.267,0.000,3.337,3.205,12.879,10.909,0.000,34.210
23758,3.267,0.000,3.337,3.205,12.879,10.909,0.000,34.232
23785,3.268,0.000,3.337,3.205,12.879,10.909,0.000,34.217
23812,3.268,0.000,3.337,3.205,12.879,10.909,0.000,34.205
23839,3.268,0.000,3.337,3.205,12.879,10.909,0.000,34.200
23866,3.268,0.000,3.337,3.205,12.879,10.909,0.000,34.173
23893,3.268,0.000,3.337,3.205,12.879,10.909,0.000,34.222
23920,3.268,0.000,3.337,3.205,12.879,10.909,0.000,34.219
23947,3.268,0.000,3.337,3.205,12.879,10.909,0.000,34.269
23974,3.268,0.000,3.337,3.205,12.879,10.909,0.000,34.239
24001,3.268,0.000,3.337,3.205,12.879,10.909,0.000,34.242
24028,3.268,0.000,3.337,3.205,12.879,10.909,0.000,34.226
24055,3.268,0.000,3.337,3.205,12.879,10.909,0.000,34.234
24082,3.268,0.000,3.337,3.205,12.879,10.909,0.000,34.237
24105,3.268,0.000,3.337,3.205,12.879,10.909,0.000,34.252