File: data/T35/1C/4.csv
time_s,voltage_v,current_a,chargecapacity_ah,dischargecapacity_ah,charge_energy_wh,discharge_energy_wh,voltagedot_v_per_s,temp_degc
1,2.934,0.000,0.000,0.000,0.000,0.000,0.000,34.579
28,2.934,0.000,0.000,0.000,0.000,0.000,0.000,34.591
55,2.934,0.000,0.000,0.000,0.000,0.000,0.000,34.596
82,2.934,0.000,0.000,0.000,0.000,0.000,0.000,34.542
109,2.934,0.000,0.000,0.000,0.000,0.000,0.000,34.592
136,2.934,0.000,0.000,0.000,0.000,0.000,0.000,34.565
163,2.934,0.000,0.000,0.000,0.000,0.000,0.000,34.592
190,2.935,0.000,0.000,0.000,0.000,0.000,0.000,34.583
217,2.935,0.000,0.000,0.000,0.000,0.000,0.000,34.589
244,2.935,0.000,0.000,0.000,0.000,0.000,0.000,34.604
271,2.935,0.000,0.000,0.000,0.000,0.000,0.000,34.572
298,2.935,0.000,0.000,0.000,0.000,0.000,0.000,34.552
325,2.935,0.000,0.000,0.000,0.000,0.000,0.000,34.627
352,2.935,0.000,0.000,0.000,0.000,0.000,0.000,34.582
379,2.935,0.000,0.000,0.000,0.000,0.000,0.000,34.603
406,2.935,0.000,0.000,0.000,0.000,0.000,0.000,34.591
433,2.935,0.000,0.000,0.000,0.000,0.000,0.000,34.620
460,2.935,0.000,0.000,0.000,0.000,0.000,0.000,34.619
487,2.935,0.000,0.000,0.000,0.000,0.000,0.000,34.604
514,2.935,0.000,0.000,0.000,0.000,0.000,0.000,34.579
541,2.935,0.000,0.000,0.000,0.000,0.000,0.000,34.621
568,2.935,0.000,0.000,0.000,0.000,0.000,0.000,34.601
595,2.935,0.000,0.000,0.000,0.000,0.000,0.000,34.613
622,2.936,0.000,0.000,0.000,0.000,0.000,0.000,34.593
649,2.936,0.000,0.000,0.000,0.000,0.000,0.000,34.614
676,2.936,0.000,0.000,0.000,0.000,0.000,0.000,34.582
703,2.936,0.000,0.000,0.000,0.000,0.000,0.000,34.600
730,2.936,0.000,0.000,0.000,0.000,0.000,0.000,34.622
757,2.936,0.000,0.000,0.000,0.000,0.000,0.000,34.559
784,2.936,0.000,0.000,0.000,0.000,0.000,0.000,34.599
811,2.936,0.000,0.000,0.000,0.000,0.000,0.000,34.623
838,2.936,0.000,0.000,0.000,0.000,0.000,0.000,34.546
865,2.936,0.000,0.000,0.000,0.000,0.000,0.000,34.570
892,2.936,0.000,0.000,0.000,0.000,0.000,0.000,34.576
919,2.936,0.000,0.000,0.000,0.000,0.000,0.000,34.624
946,2.936,0.000,0.000,0.000,0.000,0.000,0.000,34.575
973,2.936,0.000,0.000,0.000,0.000,0.000,0.000,34.601
1000,2.936,0.000,0.000,0.000,0.000,0.000,0.000,34.591
1027,2.936,0.000,0.000,0.000,0.000,0.000,0.000,34.625
1054,2.936,0.000,0.000,0.000,0.000,0.000,0.000,34.558
1081,2.937,0.000,0.000,0.000,0.000,0.000,0.000,34.601
1108,2.937,0.000,0.000,0.000,0.000,0.000,0.000,34.606
1135,2.937,0.000,0.000,0.000,0.000,0.000,0.000,34.642
1162,2.937,0.000,0.000,0.000,0.000,0.000,0.000,34.652
1189,2.937,0.000,0.000,0.000,0.000,0.000,0.000,34.584
1216,2.937,0.000,0.000,0.000,0.000,0.000,0.000,34.612
1243,2.937,0.000,0.000,0.000,0.000,0.000,0.000,34.599
1270,2.937,0.000,0.000,0.000,0.000,0.000,0.000,34.563
1297,2.937,0.000,0.000,0.000,0.000,0.000,0.000,34.551
1324,2.937,0.000,0.000,0.000,0.000,0.000,0.000,34.570
1351,2.937,0.000,0.000,0.000,0.000,0.000,0.000,34.589
1378,2.937,0.000,0.000,0.000,0.000,0.000,0.000,34.569
1405,2.937,0.000,0.000,0.000,0.000,0.000,0.000,34.625
1432,2.937,0.000,0.000,0.000,0.000,0.000,0.000,34.604
1459,2.937,0.000,0.000,0.000,0.000,0.000,0.000,34.572
1486,2.937,0.000,0.000,0.000,0.000,0.000,0.000,34.566
1513,2.937,0.000,0.000,0.000,0.000,0.000,0.000,34.582
1540,2.938,0.000,0.000,0.000,0.000,0.000,0.000,34.548
1567,2.937,0.000,0.000,0.000,0.000,0.000,0.000,34.571
1594,2.938,0.000,0.000,0.000,0.000,0.000,0.000,34.573
1621,2.938,0.000,0.000,0.000,0.000,0.000,0.000,34.619
1648,2.938,0.000,0.000,0.000,0.000,0.000,0.000,34.601
1675,2.938,0.000,0.000,0.000,0.000,0.000,0.000,34.584
1702,2.938,0.000,0.000,0.000,0.000,0.000,0.000,34.602
1729,2.938,0.000,0.000,0.000,0.000,0.000,0.000,34.591
1756,2.938,0.000,0.000,0.000,0.000,0.000,0.000,34.594
1783,2.938,0.000,0.000,0.000,0.000,0.000,0.000,34.568
1810,2.938,0.000,0.000,0.000,0.000,0.000,0.000,34.588
1837,2.938,0.000,0.000,0.000,0.000,0.000,0.000,34.600
1864,2.938,0.000,0.000,0.000,0.000,0.000,0.000,34.580
1891,2.938,0.000,0.000,0.000,0.000,0.000,0.000,34.566
1918,2.938,0.000,0.000,0.000,0.000,0.000,0.000,34.594
1945,2.938,0.000,0.000,0.000,0.000,0.000,0.000,34.625
1972,2.939,0.000,0.000,0.000,0.000,0.000,0.000,34.610
1999,2.938,0.000,0.000,0.000,0.000,0.000,0.000,34.594
2026,2.939,0.000,0.000,0.000,0.000,0.000,0.000,34.606
2053,2.939,0.000,0.000,0.000,0.000,0.000,0.000,34.604
2080,2.939,0.000,0.000,0.000,0.000,0.000,0.000,34.530
2107,2.939,0.000,0.000,0.000,0.000,0.000,0.000,34.608
2134,2.939,0.000,0.000,0.000,0.000,0.000,0.000,34.605
2161,2.939,0.000,0.000,0.000,0.000,0.000,0.000,34.627
2188,2.939,0.000,0.000,0.000,0.000,0.000,0.000,34.554
2215,2.939,0.000,0.000,0.000,0.000,0.000,0.000,34.610
2242,2.939,0.000,0.000,0.000,0.000,0.000,0.000,34.578
2269,2.939,0.000,0.000,0.000,0.000,0.000,0.000,34.576
2296,2.939,0.000,0.000,0.000,0.000,0.000,0.000,34.590
2323,2.939,0.000,0.000,0.000,0.000,0.000,0.000,34.610
2350,2.939,0.000,0.000,0.000,0.000,0.000,0.000,34.613
2377,2.939,0.000,0.000,0.000,0.000,0.000,0.000,34.581
2404,2.939,0.000,0.000,0.000,0.000,0.000,0.000,34.639
2431,2.939,0.000,0.000,0.000,0.000,0.000,0.000,34.603
2458,2.939,0.000,0.000,0.000,0.000,0.000,0.000,34.614
2485,2.940,0.000,0.000,0.000,0.000,0.000,0.000,34.569
2512,2.940,0.000,0.000,0.000,0.000,0.000,0.000,34.577
2539,2.940,0.000,0.000,0.000,0.000,0.000,0.000,34.616
2566,2.940,0.000,0.000,0.000,0.000,0.000,0.000,34.552
2593,2.940,0.000,0.000,0.000,0.000,0.000,0.000,34.588
2620,2.940,0.000,0.000,0.000,0.000,0.000,0.000,34.571
2647,2.940,0.000,0.000,0.000,0.000,0.000,0.000,34.609
2674,2.940,0.000,0.000,0.000,0.000,0.000,0.000,34.603
2701,2.940,0.000,0.000,0.000,0.000,0.000,0.000,34.642
2728,2.940,0.000,0.000,0.000,0.000,0.000,0.000,34.600
2755,2.940,0.000,0.000,0.000,0.000,0.000,0.000,34.618
2782,2.940,0.000,0.000,0.000,0.000,0.000,0.000,34.627
2809,2.940,0.000,0.000,0.000,0.000,0.000,0.000,34.583
2836,2.940,0.000,0.000,0.000,0.000,0.000,0.000,34.586
2863,2.940,0.000,0.000,0.000,0.000,0.000,0.000,34.580
2890,2.940,0.000,0.000,0.000,0.000,0.000,0.000,34.561
2917,2.940,0.000,0.000,0.000,0.000,0.000,0.000,34.569
2944,2.940,0.000,0.000,0.000,0.000,0.000,0.000,34.537
2971,2.941,0.000,0.000,0.000,0.000,0.000,0.000,34.615
2998,2.941,0.000,0.000,0.000,0.000,0.000,0.000,34.561
3025,2.941,0.000,0.000,0.000,0.000,0.000,0.000,34.559
3052,2.941,0.000,0.000,0.000,0.000,0.000,0.000,34.595
3079,2.941,0.000,0.000,0.000,0.000,0.000,0.000,34.603
3106,2.941,0.000,0.000,0.000,0.000,0.000,0.000,34.577
3133,2.941,0.000,0.000,0.000,0.000,0.000,0.000,34.572
3160,2.941,0.000,0.000,0.000,0.000,0.000,0.000,34.585
3187,2.941,0.000,0.000,0.000,0.000,0.000,0.000,34.559
3214,2.941,0.000,0.000,0.000,0.000,0.000,0.000,34.562
3241,2.941,0.000,0.000,0.000,0.000,0.000,0.000,34.572
3268,2.941,0.000,0.000,0.000,0.000,0.000,0.000,34.589
3295,2.941,0.000,0.000,0.000,0.000,0.000,0.000,34.582
3322,2.941,0.000,0.000,0.000,0.000,0.000,0.000,34.598
3349,2.941,0.000,0.000,0.000,0.000,0.000,0.000,34.594
3376,2.941,0.000,0.000,0.000,0.000,0.000,0.000,34.580
3403,2.941,0.000,0.000,0.000,0.000,0.000,0.000,34.599
3430,2.941,0.000,0.000,0.000,0.000,0.000,0.000,34.588
3457,2.942,0.000,0.000,0.000,0.000,0.000,0.000,34.580
3484,2.942,0.000,0.000,0.000,0.000,0.000,0.000,34.557
3511,2.942,0.000,0.000,0.000,0.000,0.000,0.000,34.595
3538,2.942,0.000,0.000,0.000,0.000,0.000,0.000,34.620
3565,2.942,0.000,0.000,0.000,0.000,0.000,0.000,34.613
3592,2.942,0.000,0.000,0.000,0.000,0.000,0.000,34.578
3618,3.159,1.625,0.008,0.000,0.025,0.000,0.003,34.557
3645,3.228,1.625,0.020,0.000,0.064,0.000,0.002,34.565
3672,3.279,1.625,0.033,0.000,0.104,0.000,0.002,34.558
3699,3.319,1.625,0.045,0.000,0.144,0.000,0.001,34.538
3726,3.352,1.625,0.057,0.000,0.185,0.000,0.001,34.591
3753,3.381,1.625,0.069,0.000,0.226,0.000,0.001,34.569
3780,3.406,1.625,0.081,0.000,0.267,0.000,0.001,34.618
3807,3.428,1.625,0.093,0.000,0.309,0.000,0.001,34.608
3834,3.447,1.625,0.106,0.000,0.351,0.000,0.001,34.632
3861,3.464,1.625,0.118,0.000,0.393,0.000,0.000,34.658
3888,3.477,1.625,0.130,0.000,0.435,0.000,0.000,34.686
3915,3.483,1.625,0.142,0.000,0.478,0.000,0.000,34.720
3942,3.486,1.625,0.154,0.000,0.520,0.000,0.000,34.829
3969,3.488,1.625,0.167,0.000,0.563,0.000,0.000,34.898
3996,3.490,1.625,0.179,0.000,0.605,0.000,0.000,34.942
4023,3.492,1.625,0.191,0.000,0.648,0.000,0.000,35.081
4050,3.495,1.625,0.203,0.000,0.690,0.000,0.000,35.113
4077,3.498,1.625,0.215,0.000,0.733,0.000,0.000,35.160
4104,3.500,1.625,0.228,0.000,0.776,0.000,0.000,35.271
4131,3.503,1.625,0.240,0.000,0.818,0.000,0.000,35.295
4158,3.506,1.625,0.252,0.000,0.861,0.000,0.000,35.410
4185,3.509,1.625,0.264,0.000,0.904,0.000,0.000,35.435
4212,3.511,1.625,0.276,0.000,0.947,0.000,0.000,35.496
4239,3.514,1.625,0.288,0.000,0.989,0.000,0.000,35.523
4266,3.517,1.625,0.301,0.000,1.032,0.000,0.000,35.554
4293,3.520,1.625,0.313,0.000,1.075,0.000,0.000,35.646
4320,3.523,1.625,0.325,0.000,1.118,0.000,0.000,35.678
4347,3.525,1.625,0.337,0.000,1.161,0.000,0.000,35.732
4374,3.528,1.625,0.349,0.000,1.204,0.000,0.000,35.757
4401,3.531,1.625,0.362,0.000,1.247,0.000,0.000,35.799
4428,3.534,1.625,0.374,0.000,1.290,0.000,0.000,35.836
4455,3.537,1.625,0.386,0.000,1.333,0.000,0.000,35.889
4482,3.540,1.625,0.398,0.000,1.376,0.000,0.000,35.864
4509,3.543,1.625,0.410,0.000,1.419,0.000,0.000,35.903
4536,3.546,1.625,0.423,0.000,1.463,0.000,0.000,35.925
4563,3.549,1.625,0.435,0.000,1.506,0.000,0.000,35.936
4590,3.552,1.625,0.447,0.000,1.549,0.000,0.000,35.963
4617,3.555,1.625,0.459,0.000,1.593,0.000,0.000,35.992
4644,3.558,1.625,0.471,0.000,1.636,0.000,0.000,36.041
4671,3.562,1.625,0.484,0.000,1.679,0.000,0.000,36.019
4698,3.565,1.625,0.496,0.000,1.723,0.000,0.000,36.047
4725,3.569,1.625,0.508,0.000,1.766,0.000,0.000,36.074
4752,3.572,1.625,0.520,0.000,1.810,0.000,0.000,36.013
4779,3.576,1.625,0.532,0.000,1.853,0.000,0.000,36.012
4806,3.579,1.625,0.544,0.000,1.897,0.000,0.000,36.060
4833,3.583,1.625,0.557,0.000,1.941,0.000,0.000,36.055
4860,3.586,1.625,0.569,0.000,1.984,0.000,0.000,36.050
4887,3.590,1.625,0.581,0.000,2.028,0.000,0.000,36.023
4914,3.593,1.625,0.593,0.000,2.072,0.000,0.000,36.012
4941,3.596,1.625,0.605,0.000,2.116,0.000,0.000,36.001
4968,3.599,1.625,0.618,0.000,2.159,0.000,0.000,35.978
4995,3.602,1.625,0.630,0.000,2.203,0.000,0.000,35.987
5022,3.605,1.625,0.642,0.000,2.247,0.000,0.000,35.996
5049,3.608,1.625,0.654,0.000,2.291,0.000,0.000,35.925
5076,3.611,1.625,0.666,0.000,2.335,0.000,0.000,35.961
5103,3.613,1.625,0.679,0.000,2.379,0.000,0.000,35.932
5130,3.616,1.625,0.691,0.000,2.423,0.000,0.000,35.937
5157,3.619,1.625,0.703,0.000,2.467,0.000,0.000,35.964
5184,3.621,1.625,0.715,0.000,2.511,0.000,0.000,35.948
5211,3.624,1.625,0.727,0.000,2.556,0.000,0.000,35.930
5238,3.626,1.625,0.739,0.000,2.600,0.000,0.000,35.935
5265,3.628,1.625,0.752,0.000,2.644,0.000,0.000,35.977
5292,3.631,1.625,0.764,0.000,2.688,0.000,0.000,35.939
5319,3.633,1.625,0.776,0.000,2.733,0.000,0.000,35.981
5346,3.636,1.625,0.788,0.000,2.777,0.000,0.000,35.986
5373,3.639,1.625,0.800,0.000,2.821,0.000,0.000,35.963
5400,3.641,1.625,0.813,0.000,2.866,0.000,0.000,35.986
5427,3.643,1.625,0.825,0.000,2.910,0.000,0.000,35.960
5454,3.646,1.625,0.837,0.000,2.954,0.000,0.000,35.966
5481,3.649,1.625,0.849,0.000,2.999,0.000,0.000,36.003
5508,3.651,1.625,0.861,0.000,3.043,0.000,0.000,35.958
5535,3.654,1.625,0.874,0.000,3.088,0.000,0.000,35.995
5562,3.656,1.625,0.886,0.000,3.132,0.000,0.000,35.977
5589,3.659,1.625,0.898,0.000,3.177,0.000,0.000,36.008
5616,3.661,1.625,0.910,0.000,3.222,0.000,0.000,35.995
5643,3.664,1.625,0.922,0.000,3.266,0.000,0.000,36.005
5670,3.667,1.625,0.935,0.000,3.311,0.000,0.000,36.023
5697,3.669,1.625,0.947,0.000,3.356,0.000,0.000,36.033
5724,3.672,1.625,0.959,0.000,3.400,0.000,0.000,36.028
5751,3.674,1.625,0.971,0.000,3.445,0.000,0.000,36.065
5778,3.677,1.625,0.983,0.000,3.490,0.000,0.000,36.047
5805,3.679,1.625,0.995,0.000,3.535,0.000,0.000,36.067
5832,3.682,1.625,1.008,0.000,3.580,0.000,0.000,36.074
5859,3.685,1.625,1.020,0.000,3.625,0.000,0.000,36.076
5886,3.687,1.625,1.032,0.000,3.669,0.000,0.000,36.108
5913,3.689,1.625,1.044,0.000,3.714,0.000,0.000,36.109
5940,3.692,1.625,1.056,0.000,3.759,0.000,0.000,36.102
5967,3.694,1.625,1.069,0.000,3.804,0.000,0.000,36.126
5994,3.697,1.625,1.081,0.000,3.849,0.000,0.000,36.102
6021,3.700,1.625,1.093,0.000,3.895,0.000,0.000,36.206
6048,3.702,1.625,1.105,0.000,3.940,0.000,0.000,36.155
6075,3.705,1.625,1.117,0.000,3.985,0.000,0.000,36.224
6102,3.707,1.625,1.130,0.000,4.030,0.000,0.000,36.181
6129,3.710,1.625,1.142,0.000,4.075,0.000,0.000,36.214
6156,3.712,1.625,1.154,0.000,4.120,0.000,0.000,36.212
6183,3.714,1.625,1.166,0.000,4.166,0.000,0.000,36.237
6210,3.717,1.625,1.178,0.000,4.211,0.000,0.000,36.246
6237,3.719,1.625,1.191,0.000,4.256,0.000,0.000,36.279
6264,3.721,1.625,1.203,0.000,4.302,0.000,0.000,36.303
6291,3.724,1.625,1.215,0.000,4.347,0.000,0.000,36.258
6318,3.726,1.625,1.227,0.000,4.392,0.000,0.000,36.308
6345,3.728,1.625,1.239,0.000,4.438,0.000,0.000,36.299
6372,3.730,1.625,1.251,0.000,4.483,0.000,0.000,36.336
6399,3.732,1.625,1.264,0.000,4.529,0.000,0.000,36.333
6426,3.735,1.625,1.276,0.000,4.574,0.000,0.000,36.346
6453,3.737,1.625,1.288,0.000,4.620,0.000,0.000,36.339
6480,3.739,1.625,1.300,0.000,4.665,0.000,0.000,36.289
6507,3.741,1.625,1.312,0.000,4.711,0.000,0.000,36.374
6534,3.744,1.625,1.325,0.000,4.757,0.000,0.000,36.321
6561,3.746,1.625,1.337,0.000,4.802,0.000,0.000,36.339
6588,3.748,1.625,1.349,0.000,4.848,0.000,0.000,36.351
6615,3.751,1.625,1.361,0.000,4.894,0.000,0.000,36.423
6642,3.753,1.625,1.373,0.000,4.939,0.000,0.000,36.412
6669,3.755,1.625,1.386,0.000,4.985,0.000,0.000,36.407
6696,3.757,1.625,1.398,0.000,5.031,0.000,0.000,36.422
6723,3.760,1.625,1.410,0.000,5.077,0.000,0.000,36.449
6750,3.762,1.625,1.422,0.000,5.123,0.000,0.000,36.427
6777,3.765,1.625,1.434,0.000,5.168,0.000,0.000,36.472
6804,3.767,1.625,1.446,0.000,5.214,0.000,0.000,36.444
6831,3.769,1.625,1.459,0.000,5.260,0.000,0.000,36.438
6858,3.772,1.625,1.471,0.000,5.306,0.000,0.000,36.449
6885,3.774,1.625,1.483,0.000,5.352,0.000,0.000,36.462
6912,3.777,1.625,1.495,0.000,5.398,0.000,0.000,36.450
6939,3.780,1.625,1.507,0.000,5.444,0.000,0.000,36.463
6966,3.782,1.625,1.520,0.000,5.490,0.000,0.000,36.446
6993,3.785,1.625,1.532,0.000,5.537,0.000,0.000,36.474
7020,3.787,1.625,1.544,0.000,5.583,0.000,0.000,36.471
7047,3.790,1.625,1.556,0.000,5.629,0.000,0.000,36.444
7074,3.793,1.625,1.568,0.000,5.675,0.000,0.000,36.441
7101,3.795,1.625,1.581,0.000,5.721,0.000,0.000,36.485
7128,3.798,1.625,1.593,0.000,5.768,0.000,0.000,36.442
7155,3.801,1.625,1.605,0.000,5.814,0.000,0.000,36.456
7182,3.804,1.625,1.617,0.000,5.860,0.000,0.000,36.450
7209,3.807,1.625,1.629,0.000,5.907,0.000,0.000,36.459
7236,3.810,1.625,1.642,0.000,5.953,0.000,0.000,36.511
7263,3.812,1.625,1.654,0.000,6.000,0.000,0.000,36.517
7290,3.815,1.625,1.666,0.000,6.046,0.000,0.000,36.461
7317,3.818,1.625,1.678,0.000,6.093,0.000,0.000,36.496
7344,3.821,1.625,1.690,0.000,6.139,0.000,0.000,36.468
7371,3.824,1.625,1.702,0.000,6.186,0.000,0.000,36.515
7398,3.828,1.625,1.715,0.000,6.232,0.000,0.000,36.471
7425,3.831,1.625,1.727,0.000,6.279,0.000,0.000,36.504
7452,3.834,1.625,1.739,0.000,6.326,0.000,0.000,36.485
7479,3.837,1.625,1.751,0.000,6.372,0.000,0.000,36.569
7506,3.840,1.625,1.763,0.000,6.419,0.000,0.000,36.553
7533,3.843,1.625,1.776,0.000,6.466,0.000,0.000,36.510
7560,3.847,1.625,1.788,0.000,6.513,0.000,0.000,36.524
7587,3.850,1.625,1.800,0.000,6.560,0.000,0.000,36.531
7614,3.853,1.625,1.812,0.000,6.607,0.000,0.000,36.502
7641,3.857,1.625,1.824,0.000,6.654,0.000,0.000,36.533
7668,3.860,1.625,1.837,0.000,6.701,0.000,0.000,36.501
7695,3.863,1.625,1.849,0.000,6.748,0.000,0.000,36.534
7722,3.867,1.625,1.861,0.000,6.795,0.000,0.000,36.537
7749,3.870,1.625,1.873,0.000,6.842,0.000,0.000,36.524
7776,3.873,1.625,1.885,0.000,6.889,0.000,0.000,36.553
7803,3.877,1.625,1.897,0.000,6.937,0.000,0.000,36.625
7830,3.880,1.625,1.910,0.000,6.984,0.000,0.000,36.557
7857,3.884,1.625,1.922,0.000,7.031,0.000,0.000,36.528
7884,3.887,1.625,1.934,0.000,7.079,0.000,0.000,36.540
7911,3.891,1.625,1.946,0.000,7.126,0.000,0.000,36.559
7938,3.894,1.625,1.958,0.000,7.173,0.000,0.000,36.551
7965,3.898,1.625,1.971,0.000,7.221,0.000,0.000,36.539
7992,3.901,1.625,1.983,0.000,7.268,0.000,0.000,36.524
8019,3.904,1.625,1.995,0.000,7.316,0.000,0.000,36.499
8046,3.908,1.625,2.007,0.000,7.364,0.000,0.000,36.574
8073,3.911,1.625,2.019,0.000,7.411,0.000,0.000,36.569
8100,3.915,1.625,2.032,0.000,7.459,0.000,0.000,36.567
8127,3.918,1.625,2.044,0.000,7.507,0.000,0.000,36.547
8154,3.922,1.625,2.056,0.000,7.555,0.000,0.000,36.553
8181,3.925,1.625,2.068,0.000,7.602,0.000,0.000,36.549
8208,3.929,1.625,2.080,0.000,7.650,0.000,0.000,36.551
8235,3.932,1.625,2.093,0.000,7.698,0.000,0.000,36.529
8262,3.936,1.625,2.105,0.000,7.746,0.000,0.000,36.589
8289,3.939,1.625,2.117,0.000,7.794,0.000,0.000,36.502
8316,3.942,1.625,2.129,0.000,7.842,0.000,0.000,36.541
8343,3.946,1.625,2.141,0.000,7.890,0.000,0.000,36.564
8370,3.949,1.625,2.153,0.000,7.938,0.000,0.000,36.546
8397,3.953,1.625,2.166,0.000,7.986,0.000,0.000,36.558
8424,3.956,1.625,2.178,0.000,8.035,0.000,0.000,36.543
8451,3.959,1.625,2.190,0.000,8.083,0.000,0.000,36.524
8478,3.963,1.625,2.202,0.000,8.131,0.000,0.000,36.534
8505,3.966,1.625,2.214,0.000,8.179,0.000,0.000,36.527
8532,3.969,1.625,2.227,0.000,8.228,0.000,0.000,36.511
8559,3.973,1.625,2.239,0.000,8.276,0.000,0.000,36.546
8586,3.976,1.625,2.251,0.000,8.325,0.000,0.000,36.564
8613,3.980,1.625,2.263,0.000,8.373,0.000,0.000,36.536
8640,3.983,1.625,2.275,0.000,8.422,0.000,0.000,36.503
8667,3.986,1.625,2.288,0.000,8.470,0.000,0.000,36.493
8694,3.990,1.625,2.300,0.000,8.519,0.000,0.000,36.487
8721,3.993,1.625,2.312,0.000,8.568,0.000,0.000,36.514
8748,3.996,1.625,2.324,0.000,8.616,0.000,0.000,36.542
8775,4.000,1.625,2.336,0.000,8.665,0.000,0.000,36.501
8802,4.003,1.625,2.349,0.000,8.714,0.000,0.000,36.516
8829,4.007,1.625,2.361,0.000,8.763,0.000,0.000,36.560
8856,4.010,1.625,2.373,0.000,8.811,0.000,0.000,36.561
8883,4.013,1.625,2.385,0.000,8.860,0.000,0.000,36.481
8910,4.017,1.625,2.397,0.000,8.909,0.000,0.000,36.494
8937,4.020,1.625,2.409,0.000,8.958,0.000,0.000,36.546
8964,4.023,1.625,2.422,0.000,9.007,0.000,0.000,36.474
8991,4.027,1.625,2.434,0.000,9.056,0.000,0.000,36.486
9018,4.030,1.625,2.446,0.000,9.105,0.000,0.000,36.512
9045,4.034,1.625,2.458,0.000,9.155,0.000,0.000,36.492
9072,4.037,1.625,2.470,0.000,9.204,0.000,0.000,36.471
9099,4.041,1.625,2.483,0.000,9.253,0.000,0.000,36.501
9126,4.045,1.625,2.495,0.000,9.302,0.000,0.000,36.484
9153,4.048,1.625,2.507,0.000,9.352,0.000,0.000,36.504
9180,4.052,1.625,2.519,0.000,9.401,0.000,0.000,36.484
9207,4.056,1.625,2.531,0.000,9.450,0.000,0.000,36.534
9234,4.059,1.625,2.544,0.000,9.500,0.000,0.000,36.500
9261,4.063,1.625,2.556,0.000,9.549,0.000,0.000,36.521
9288,4.067,1.625,2.568,0.000,9.599,0.000,0.000,36.536
9315,4.071,1.625,2.580,0.000,9.649,0.000,0.000,36.567
9342,4.075,1.625,2.592,0.000,9.698,0.000,0.000,36.543
9369,4.079,1.625,2.604,0.000,9.748,0.000,0.000,36.580
9396,4.083,1.625,2.617,0.000,9.798,0.000,0.000,36.555
9423,4.087,1.625,2.629,0.000,9.847,0.000,0.000,36.597
9450,4.091,1.625,2.641,0.000,9.897,0.000,0.000,36.578
9477,4.095,1.625,2.653,0.000,9.947,0.000,0.000,36.560
9504,4.100,1.625,2.665,0.000,9.997,0.000,0.000,36.616
9531,4.104,1.625,2.678,0.000,10.047,0.000,0.000,36.575
9558,4.109,1.625,2.690,0.000,10.097,0.000,0.000,36.591
9585,4.113,1.625,2.702,0.000,10.147,0.000,0.000,36.591
9612,4.118,1.625,2.714,0.000,10.197,0.000,0.000,36.618
9639,4.122,1.625,2.726,0.000,10.248,0.000,0.000,36.596
9666,4.127,1.625,2.739,0.000,10.298,0.000,0.000,36.646
9693,4.132,1.625,2.751,0.000,10.348,0.000,0.000,36.608
9720,4.136,1.625,2.763,0.000,10.399,0.000,0.000,36.630
9747,4.141,1.625,2.775,0.000,10.449,0.000,0.000,36.614
9774,4.146,1.625,2.787,0.000,10.500,0.000,0.000,36.719
9801,4.151,1.625,2.800,0.000,10.550,0.000,0.000,36.687
9828,4.156,1.625,2.812,0.000,10.601,0.000,0.000,36.695
9855,4.160,1.625,2.824,0.000,10.651,0.000,0.000,36.702
9882,4.165,1.625,2.836,0.000,10.702,0.000,0.000,36.710
9909,4.170,1.625,2.848,0.000,10.753,0.000,0.000,36.667
9936,4.175,1.625,2.860,0.000,10.804,0.000,0.000,36.693
9963,4.180,1.625,2.873,0.000,10.855,0.000,0.000,36.671
9990,4.185,1.625,2.885,0.000,10.906,0.000,0.000,36.753
10017,4.190,1.625,2.897,0.000,10.957,0.000,0.000,36.713
10044,4.195,1.625,2.909,0.000,11.008,0.000,0.000,36.762
10071,4.199,1.625,2.921,0.000,11.059,0.000,0.000,36.745
10097,4.200,1.551,2.933,0.000,11.108,0.000,0.000,36.758
10124,4.200,1.488,2.944,0.000,11.156,0.000,0.000,36.783
10151,4.200,1.436,2.955,0.000,11.202,0.000,0.000,36.758
10178,4.200,1.390,2.966,0.000,11.246,0.000,0.000,36.756
10205,4.200,1.347,2.976,0.000,11.289,0.000,0.000,36.767
10232,4.200,1.308,2.986,0.000,11.331,0.000,0.000,36.711
10259,4.200,1.272,2.996,0.000,11.372,0.000,0.000,36.706
10286,4.200,1.237,3.005,0.000,11.411,0.000,0.000,36.671
10313,4.200,1.204,3.014,0.000,11.450,0.000,0.000,36.610
10340,4.200,1.171,3.023,0.000,11.487,0.000,0.000,36.589
10367,4.200,1.141,3.032,0.000,11.523,0.000,0.000,36.561
10394,4.200,1.112,3.040,0.000,11.559,0.000,0.000,36.574
10421,4.200,1.086,3.049,0.000,11.593,0.000,0.000,36.487
10448,4.200,1.058,3.057,0.000,11.627,0.000,0.000,36.464
10475,4.200,1.032,3.065,0.000,11.660,0.000,0.000,36.409
10502,4.200,1.007,3.072,0.000,11.692,0.000,0.000,36.409
10529,4.200,0.983,3.080,0.000,11.723,0.000,0.000,36.355
10556,4.200,0.960,3.087,0.000,11.754,0.000,0.000,36.292
10583,4.200,0.937,3.094,0.000,11.784,0.000,0.000,36.302
10610,4.200,0.914,3.101,0.000,11.813,0.000,0.000,36.267
10637,4.200,0.893,3.108,0.000,11.842,0.000,0.000,36.207
10664,4.200,0.872,3.114,0.000,11.869,0.000,0.000,36.218
10691,4.200,0.852,3.121,0.000,11.896,0.000,0.000,36.087
10718,4.200,0.831,3.127,0.000,11.923,0.000,0.000,36.065
10745,4.200,0.812,3.133,0.000,11.949,0.000,0.000,36.061
10772,4.200,0.793,3.139,0.000,11.974,0.000,0.000,36.025
10799,4.200,0.773,3.145,0.000,11.999,0.000,0.000,35.978
10826,4.200,0.756,3.151,0.000,12.023,0.000,0.000,35.991
10853,4.200,0.739,3.156,0.000,12.046,0.000,0.000,35.940
10880,4.200,0.721,3.162,0.000,12.069,0.000,0.000,35.905
10907,4.200,0.705,3.167,0.000,12.092,0.000,0.000,35.836
10934,4.200,0.687,3.173,0.000,12.114,0.000,0.000,35.788
10961,4.200,0.671,3.178,0.000,12.135,0.000,0.000,35.781
10988,4.200,0.654,3.183,0.000,12.156,0.000,0.000,35.699
11015,4.200,0.638,3.187,0.000,12.176,0.000,0.000,35.663
11042,4.200,0.622,3.192,0.000,12.196,0.000,0.000,35.717
11069,4.200,0.607,3.197,0.000,12.216,0.000,0.000,35.655
11096,4.200,0.591,3.201,0.000,12.234,0.000,0.000,35.642
11123,4.200,0.577,3.206,0.000,12.253,0.000,0.000,35.635
11150,4.200,0.562,3.210,0.000,12.271,0.000,0.000,35.585
11177,4.200,0.547,3.214,0.000,12.288,0.000,0.000,35.547
11204,4.200,0.534,3.218,0.000,12.305,0.000,0.000,35.599
11231,4.200,0.519,3.222,0.000,12.322,0.000,0.000,35.523
11258,4.200,0.506,3.226,0.000,12.338,0.000,0.000,35.459
11285,4.200,0.493,3.230,0.000,12.354,0.000,0.000,35.459
11312,4.200,0.479,3.233,0.000,12.369,0.000,0.000,35.437
11339,4.200,0.467,3.237,0.000,12.384,0.000,0.000,35.446
11366,4.200,0.454,3.240,0.000,12.398,0.000,0.000,35.394
11393,4.200,0.442,3.244,0.000,12.412,0.000,0.000,35.358
11420,4.200,0.430,3.247,0.000,12.426,0.000,0.000,35.355
11447,4.200,0.419,3.250,0.000,12.439,0.000,0.000,35.328
11474,4.200,0.406,3.253,0.000,12.452,0.000,0.000,35.291
11501,4.200,0.395,3.256,0.000,12.465,0.000,0.000,35.273
11528,4.200,0.385,3.259,0.000,12.477,0.000,0.000,35.218
11555,4.200,0.374,3.262,0.000,12.489,0.000,0.000,35.259
11582,4.200,0.363,3.265,0.000,12.501,0.000,0.000,35.245
11609,4.200,0.352,3.267,0.000,12.512,0.000,0.000,35.162
11636,4.200,0.343,3.270,0.000,12.523,0.000,0.000,35.188
11663,4.200,0.333,3.273,0.000,12.534,0.000,0.000,35.203
11690,4.200,0.323,3.275,0.000,12.544,0.000,0.000,35.137
11717,4.200,0.315,3.277,0.000,12.554,0.000,0.000,35.137
11744,4.200,0.305,3.280,0.000,12.564,0.000,0.000,35.093
11771,4.200,0.296,3.282,0.000,12.573,0.000,0.000,35.051
11798,4.200,0.287,3.284,0.000,12.582,0.000,0.000,35.054
11825,4.200,0.279,3.286,0.000,12.591,0.000,0.000,35.066
11852,4.200,0.271,3.288,0.000,12.600,0.000,0.000,35.024
11879,4.200,0.264,3.290,0.000,12.609,0.000,0.000,35.073
11906,4.200,0.256,3.292,0.000,12.617,0.000,0.000,35.034
11933,4.200,0.248,3.294,0.000,12.625,0.000,0.000,34.988
11960,4.200,0.241,3.296,0.000,12.632,0.000,0.000,34.982
11987,4.200,0.233,3.298,0.000,12.640,0.000,0.000,34.948
12014,4.200,0.227,3.300,0.000,12.647,0.000,0.000,34.969
12041,4.200,0.221,3.301,0.000,12.654,0.000,0.000,34.946
12068,4.200,0.214,3.303,0.000,12.661,0.000,0.000,34.919
12095,4.200,0.209,3.304,0.000,12.668,0.000,0.000,34.938
12122,4.200,0.202,3.306,0.000,12.674,0.000,0.000,34.920
12149,4.200,0.196,3.307,0.000,12.680,0.000,0.000,34.925
12176,4.200,0.191,3.309,0.000,12.687,0.000,0.000,34.878
12203,4.200,0.186,3.310,0.000,12.692,0.000,0.000,34.882
12230,4.200,0.179,3.312,0.000,12.698,0.000,0.000,34.857
12257,4.200,0.175,3.313,0.000,12.704,0.000,0.000,34.904
12284,4.200,0.169,3.314,0.000,12.709,0.000,0.000,34.869
12311,4.200,0.165,3.316,0.000,12.714,0.000,0.000,34.891
12338,4.200,0.161,3.317,0.000,12.720,0.000,0.000,34.855
12365,4.200,0.156,3.318,0.000,12.725,0.000,0.000,34.819
12392,4.200,0.151,3.319,0.000,12.729,0.000,0.000,34.860
12419,4.200,0.148,3.320,0.000,12.734,0.000,0.000,34.836
12446,4.200,0.143,3.321,0.000,12.739,0.000,0.000,34.804
12473,4.200,0.139,3.322,0.000,12.743,0.000,0.000,34.823
12500,4.200,0.135,3.323,0.000,12.747,0.000,0.000,34.802
12527,4.200,0.131,3.324,0.000,12.752,0.000,0.000,34.783
12554,4.200,0.128,3.325,0.000,12.756,0.000,0.000,34.825
12581,4.200,0.124,3.326,0.000,12.760,0.000,0.000,34.787
12608,4.200,0.120,3.327,0.000,12.763,0.000,0.000,34.793
12635,4.200,0.118,3.328,0.000,12.767,0.000,0.000,34.757
12662,4.200,0.114,3.329,0.000,12.771,0.000,0.000,34.745
12689,4.200,0.112,3.330,0.000,12.774,0.000,0.000,34.737
12716,4.200,0.109,3.331,0.000,12.778,0.000,0.000,34.769
12743,4.200,0.106,3.331,0.000,12.781,0.000,0.000,34.719
12770,4.200,0.103,3.332,0.000,12.785,0.000,0.000,34.725
12797,4.200,0.100,3.333,0.000,12.788,0.000,0.000,34.733
12824,4.200,0.098,3.334,0.000,12.791,0.000,0.000,34.738
12851,4.200,0.095,3.334,0.000,12.794,0.000,0.000,34.749
12878,4.200,0.092,3.335,0.000,12.797,0.000,0.000,34.714
12905,4.200,0.090,3.336,0.000,12.800,0.000,0.000,34.726
12932,4.200,0.088,3.336,0.000,12.802,0.000,0.000,34.751
12959,4.200,0.086,3.337,0.000,12.805,0.000,0.000,34.685
12986,4.200,0.084,3.338,0.000,12.808,0.000,0.000,34.718
13013,4.200,0.081,3.338,0.000,12.810,0.000,0.000,34.698
13040,4.200,0.080,3.339,0.000,12.813,0.000,0.000,34.694
13067,4.200,0.078,3.340,0.000,12.815,0.000,0.000,34.714
13094,4.200,0.075,3.340,0.000,12.818,0.000,0.000,34.657
13121,4.200,0.074,3.341,0.000,12.820,0.000,0.000,34.711
13148,4.200,0.072,3.341,0.000,12.822,0.000,0.000,34.701
13175,4.200,0.070,3.342,0.000,12.825,0.000,0.000,34.664
13202,4.200,0.069,3.342,0.000,12.827,0.000,0.000,34.683
13229,4.200,0.066,3.343,0.000,12.829,0.000,0.000,34.676
13256,4.197,0.000,3.343,0.000,12.831,0.000,0.000,34.685
13283,4.195,0.000,3.343,0.000,12.831,0.000,0.000,34.693
13310,4.195,0.000,3.343,0.000,12.831,0.000,0.000,34.670
13337,4.194,0.000,3.343,0.000,12.831,0.000,0.000,34.654
13364,4.194,0.000,3.343,0.000,12.831,0.000,0.000,34.676
13391,4.193,0.000,3.343,0.000,12.831,0.000,0.000,34.670
13418,4.193,0.000,3.343,0.000,12.831,0.000,0.000,34.670
13445,4.193,0.000,3.343,0.000,12.831,0.000,0.000,34.635
13472,4.192,0.000,3.343,0.000,12.831,0.000,0.000,34.639
13499,4.192,0.000,3.343,0.000,12.831,0.000,0.000,34.664
13526,4.192,0.000,3.343,0.000,12.831,0.000,0.000,34.635
13553,4.192,0.000,3.343,0.000,12.831,0.000,0.000,34.639
13580,4.191,0.000,3.343,0.000,12.831,0.000,0.000,34.654
13607,4.191,0.000,3.343,0.000,12.831,0.000,0.000,34.591
13634,4.191,0.000,3.343,0.000,12.831,0.000,0.000,34.617
13661,4.191,0.000,3.343,0.000,12.831,0.000,0.000,34.618
13688,4.190,0.000,3.343,0.000,12.831,0.000,0.000,34.622
13715,4.190,0.000,3.343,0.000,12.831,0.000,0.000,34.638
13742,4.190,0.000,3.343,0.000,12.831,0.000,0.000,34.613
13769,4.190,0.000,3.343,0.000,12.831,0.000,0.000,34.618
13796,4.190,0.000,3.343,0.000,12.831,0.000,0.000,34.605
13823,4.190,0.000,3.343,0.000,12.831,0.000,0.000,34.642
13850,4.189,0.000,3.343,0.000,12.831,0.000,0.000,34.624
13877,4.189,0.000,3.343,0.000,12.831,0.000,0.000,34.613
13904,4.189,0.000,3.343,0.000,12.831,0.000,0.000,34.603
13931,4.189,0.000,3.343,0.000,12.831,0.000,0.000,34.643
13958,4.189,0.000,3.343,0.000,12.831,0.000,0.000,34.610
13985,4.189,0.000,3.343,0.000,12.831,0.000,0.000,34.616
14012,4.189,0.000,3.343,0.000,12.831,0.000,0.000,34.627
14039,4.188,0.000,3.343,0.000,12.831,0.000,0.000,34.605
14066,4.188,0.000,3.343,0.000,12.831,0.000,0.000,34.620
14093,4.188,0.000,3.343,0.000,12.831,0.000,0.000,34.635
14120,4.188,0.000,3.343,0.000,12.831,0.000,0.000,34.610
14147,4.188,0.000,3.343,0.000,12.831,0.000,0.000,34.643
14174,4.188,0.000,3.343,0.000,12.831,0.000,0.000,34.574
14201,4.187,0.000,3.343,0.000,12.831,0.000,0.000,34.626
14228,4.187,0.000,3.343,0.000,12.831,0.000,0.000,34.622
14255,4.187,0.000,3.343,0.000,12.831,0.000,0.000,34.643
14282,4.187,0.000,3.343,0.000,12.831,0.000,0.000,34.624
14309,4.187,0.000,3.343,0.000,12.831,0.000,0.000,34.610
14336,4.187,0.000,3.343,0.000,12.831,0.000,0.000,34.666
14363,4.187,0.000,3.343,0.000,12.831,0.000,0.000,34.636
14390,4.187,0.000,3.343,0.000,12.831,0.000,0.000,34.630
14417,4.187,0.000,3.343,0.000,12.831,0.000,0.000,34.604
14444,4.186,0.000,3.343,0.000,12.831,0.000,0.000,34.580
14471,4.186,0.000,3.343,0.000,12.831,0.000,0.000,34.605
14498,4.186,0.000,3.343,0.000,12.831,0.000,0.000,34.649
14525,4.186,0.000,3.343,0.000,12.831,0.000,0.000,34.652
14552,4.186,0.000,3.343,0.000,12.831,0.000,0.000,34.659
14579,4.186,0.000,3.343,0.000,12.831,0.000,0.000,34.653
14606,4.186,0.000,3.343,0.000,12.831,0.000,0.000,34.612
14633,4.186,0.000,3.343,0.000,12.831,0.000,0.000,34.622
14660,4.186,0.000,3.343,0.000,12.831,0.000,0.000,34.608
14687,4.186,0.000,3.343,0.000,12.831,0.000,0.000,34.633
14714,4.186,0.000,3.343,0.000,12.831,0.000,0.000,34.649
14741,4.186,0.000,3.343,0.000,12.831,0.000,0.000,34.614
14768,4.185,0.000,3.343,0.000,12.831,0.000,0.000,34.653
14795,4.185,0.000,3.343,0.000,12.831,0.000,0.000,34.646
14822,4.185,0.000,3.343,0.000,12.831,0.000,0.000,34.593
14849,4.185,0.000,3.343,0.000,12.831,0.000,0.000,34.652
14876,4.185,0.000,3.343,0.000,12.831,0.000,0.000,34.628
14903,4.185,0.000,3.343,0.000,12.831,0.000,0.000,34.631
14930,4.185,0.000,3.343,0.000,12.831,0.000,0.000,34.606
14957,4.185,0.000,3.343,0.000,12.831,0.000,0.000,34.647
14984,4.185,0.000,3.343,0.000,12.831,0.000,0.000,34.618
15011,4.185,0.000,3.343,0.000,12.831,0.000,0.000,34.676
15038,4.185,0.000,3.343,0.000,12.831,0.000,0.000,34.590
15065,4.185,0.000,3.343,0.000,12.831,0.000,0.000,34.616
15092,4.185,0.000,3.343,0.000,12.831,0.000,0.000,34.595
15119,4.184,0.000,3.343,0.000,12.831,0.000,0.000,34.610
15146,4.184,0.000,3.343,0.000,12.831,0.000,0.000,34.606
15173,4.184,0.000,3.343,0.000,12.831,0.000,0.000,34.594
15200,4.184,0.000,3.343,0.000,12.831,0.000,0.000,34.608
15227,4.184,0.000,3.343,0.000,12.831,0.000,0.000,34.596
15254,4.184,0.000,3.343,0.000,12.831,0.000,0.000,34.603
15281,4.184,0.000,3.343,0.000,12.831,0.000,0.000,34.590
15308,4.184,0.000,3.343,0.000,12.831,0.000,0.000,34.601
15335,4.184,0.000,3.343,0.000,12.831,0.000,0.000,34.585
15362,4.184,0.000,3.343,0.000,12.831,0.000,0.000,34.646
15389,4.184,0.000,3.343,0.000,12.831,0.000,0.000,34.611
15416,4.184,0.000,3.343,0.000,12.831,0.000,0.000,34.584
15443,4.184,0.000,3.343,0.000,12.831,0.000,0.000,34.620
15470,4.184,0.000,3.343,0.000,12.831,0.000,0.000,34.633
15497,4.183,0.000,3.343,0.000,12.831,0.000,0.000,34.603
15524,4.184,0.000,3.343,0.000,12.831,0.000,0.000,34.633
15551,4.184,0.000,3.343,0.000,12.831,0.000,0.000,34.624
15578,4.183,0.000,3.343,0.000,12.831,0.000,0.000,34.592
15605,4.183,0.000,3.343,0.000,12.831,0.000,0.000,34.593
15632,4.183,0.000,3.343,0.000,12.831,0.000,0.000,34.619
15659,4.183,0.000,3.343,0.000,12.831,0.000,0.000,34.609
15686,4.183,0.000,3.343,0.000,12.831,0.000,0.000,34.604
15713,4.183,0.000,3.343,0.000,12.831,0.000,0.000,34.639
15740,4.183,0.000,3.343,0.000,12.831,0.000,0.000,34.593
15767,4.183,0.000,3.343,0.000,12.831,0.000,0.000,34.610
15794,4.183,0.000,3.343,0.000,12.831,0.000,0.000,34.531
15821,4.183,0.000,3.343,0.000,12.831,0.000,0.000,34.608
15848,4.183,0.000,3.343,0.000,12.831,0.000,0.000,34.601
15875,4.183,0.000,3.343,0.000,12.831,0.000,0.000,34.606
15902,4.183,0.000,3.343,0.000,12.831,0.000,0.000,34.612
15929,4.183,0.000,3.343,0.000,12.831,0.000,0.000,34.570
15956,4.183,0.000,3.343,0.000,12.831,0.000,0.000,34.612
15983,4.183,0.000,3.343,0.000,12.831,0.000,0.000,34.627
16010,4.183,0.000,3.343,0.000,12.831,0.000,0.000,34.603
16037,4.183,0.000,3.343,0.000,12.831,0.000,0.000,34.607
16064,4.183,0.000,3.343,0.000,12.831,0.000,0.000,34.620
16091,4.183,0.000,3.343,0.000,12.831,0.000,0.000,34.608
16118,4.182,0.000,3.343,0.000,12.831,0.000,0.000,34.616
16145,4.182,0.000,3.343,0.000,12.831,0.000,0.000,34.607
16172,4.182,0.000,3.343,0.000,12.831,0.000,0.000,34.618
16199,4.182,0.000,3.343,0.000,12.831,0.000,0.000,34.598
16226,4.182,0.000,3.343,0.000,12.831,0.000,0.000,34.606
16253,4.182,0.000,3.343,0.000,12.831,0.000,0.000,34.583
16280,4.182,0.000,3.343,0.000,12.831,0.000,0.000,34.589
16307,4.182,0.000,3.343,0.000,12.831,0.000,0.000,34.593
16334,4.182,0.000,3.343,0.000,12.831,0.000,0.000,34.565
16361,4.182,0.000,3.343,0.000,12.831,0.000,0.000,34.567
16388,4.182,0.000,3.343,0.000,12.831,0.000,0.000,34.579
16415,4.182,0.000,3.343,0.000,12.831,0.000,0.000,34.562
16442,4.182,0.000,3.343,0.000,12.831,0.000,0.000,34.621
16469,4.182,0.000,3.343,0.000,12.831,0.000,0.000,34.634
16496,4.182,0.000,3.343,0.000,12.831,0.000,0.000,34.577
16523,4.182,0.000,3.343,0.000,12.831,0.000,0.000,34.602
16550,4.182,0.000,3.343,0.000,12.831,0.000,0.000,34.588
16577,4.182,0.000,3.343,0.000,12.831,0.000,0.000,34.617
16604,4.182,0.000,3.343,0.000,12.831,0.000,0.000,34.563
16631,4.182,0.000,3.343,0.000,12.831,0.000,0.000,34.574
16658,4.182,0.000,3.343,0.000,12.831,0.000,0.000,34.609
16685,4.182,0.000,3.343,0.000,12.831,0.000,0.000,34.619
16712,4.182,0.000,3.343,0.000,12.831,0.000,0.000,34.595
16739,4.182,0.000,3.343,0.000,12.831,0.000,0.000,34.608
16766,4.182,0.000,3.343,0.000,12.831,0.000,0.000,34.621
16793,4.181,0.000,3.343,0.000,12.831,0.000,0.000,34.612
16820,4.181,0.000,3.343,0.000,12.831,0.000,0.000,34.620
16847,4.182,0.000,3.343,0.000,12.831,0.000,0.000,34.613
16873,3.981,-3.350,3.343,0.021,12.831,0.086,-0.001,34.673
16900,3.959,-3.350,3.343,0.047,12.831,0.185,-0.001,34.816
16927,3.945,-3.350,3.343,0.072,12.831,0.285,-0.001,35.036
16954,3.933,-3.350,3.343,0.097,12.831,0.384,0.000,35.221
16981,3.923,-3.350,3.343,0.122,12.831,0.482,0.000,35.405
17008,3.914,-3.350,3.343,0.147,12.831,0.581,0.000,35.591
17035,3.906,-3.350,3.343,0.172,12.831,0.679,0.000,35.730
17062,3.898,-3.350,3.343,0.197,12.831,0.777,0.000,35.876
17089,3.890,-3.350,3.343,0.222,12.831,0.875,0.000,36.027
17116,3.882,-3.350,3.343,0.248,12.831,0.973,0.000,36.193
17143,3.874,-3.350,3.343,0.273,12.831,1.070,0.000,36.316
17170,3.866,-3.350,3.343,0.298,12.831,1.167,0.000,36.489
17197,3.857,-3.350,3.343,0.323,12.831,1.264,0.000,36.561
17224,3.848,-3.350,3.343,0.348,12.831,1.361,0.000,36.664
17251,3.839,-3.350,3.343,0.373,12.831,1.458,0.000,36.817
17278,3.830,-3.350,3.343,0.398,12.831,1.554,0.000,36.967
17305,3.821,-3.350,3.343,0.423,12.831,1.650,0.000,36.982
17332,3.812,-3.350,3.343,0.449,12.831,1.746,0.000,37.102
17359,3.802,-3.350,3.343,0.474,12.831,1.842,0.000,37.166
17386,3.793,-3.350,3.343,0.499,12.831,1.937,0.000,37.268
17413,3.784,-3.350,3.343,0.524,12.831,2.032,0.000,37.315
17440,3.775,-3.350,3.343,0.549,12.831,2.127,0.000,37.404
17467,3.766,-3.350,3.343,0.574,12.831,2.222,0.000,37.469
17494,3.757,-3.350,3.343,0.599,12.831,2.316,0.000,37.520
17521,3.748,-3.350,3.343,0.624,12.831,2.411,0.000,37.548
17548,3.740,-3.350,3.343,0.650,12.831,2.505,0.000,37.627
17575,3.732,-3.350,3.343,0.675,12.831,2.599,0.000,37.641
17602,3.723,-3.350,3.343,0.700,12.831,2.692,0.000,37.705
17629,3.716,-3.350,3.343,0.725,12.831,2.786,0.000,37.732
17656,3.708,-3.350,3.343,0.750,12.831,2.879,0.000,37.829
17683,3.700,-3.350,3.343,0.775,12.831,2.972,0.000,37.848
17710,3.693,-3.350,3.343,0.800,12.831,3.065,0.000,37.920
17737,3.686,-3.350,3.343,0.825,12.831,3.158,0.000,37.946
17764,3.678,-3.350,3.343,0.851,12.831,3.250,0.000,37.985
17791,3.671,-3.350,3.343,0.876,12.831,3.342,0.000,37.999
17818,3.664,-3.350,3.343,0.901,12.831,3.435,0.000,38.056
17845,3.656,-3.350,3.343,0.926,12.831,3.527,0.000,38.103
17872,3.649,-3.350,3.343,0.951,12.831,3.618,0.000,38.126
17899,3.642,-3.350,3.343,0.976,12.831,3.710,0.000,38.192
17926,3.634,-3.350,3.343,1.001,12.831,3.801,0.000,38.246
17953,3.627,-3.350,3.343,1.026,12.831,3.893,0.000,38.293
17980,3.619,-3.350,3.343,1.052,12.831,3.984,0.000,38.318
18007,3.612,-3.350,3.343,1.077,12.831,4.074,0.000,38.366
18034,3.604,-3.350,3.343,1.102,12.831,4.165,0.000,38.358
18061,3.596,-3.350,3.343,1.127,12.831,4.256,0.000,38.483
18088,3.588,-3.350,3.343,1.152,12.831,4.346,0.000,38.488
18115,3.580,-3.350,3.343,1.177,12.831,4.436,0.000,38.567
18142,3.572,-3.350,3.343,1.202,12.831,4.526,0.000,38.545
18169,3.564,-3.350,3.343,1.227,12.831,4.615,0.000,38.605
18196,3.557,-3.350,3.343,1.253,12.831,4.705,0.000,38.591
18223,3.548,-3.350,3.343,1.278,12.831,4.794,0.000,38.718
18250,3.540,-3.350,3.343,1.303,12.831,4.883,0.000,38.752
18277,3.532,-3.350,3.343,1.328,12.831,4.972,0.000,38.744
18304,3.525,-3.350,3.343,1.353,12.831,5.061,0.000,38.764
18331,3.517,-3.350,3.343,1.378,12.831,5.149,0.000,38.815
18358,3.509,-3.350,3.343,1.403,12.831,5.237,0.000,38.849
18385,3.501,-3.350,3.343,1.428,12.831,5.325,0.000,38.834
18412,3.493,-3.350,3.343,1.454,12.831,5.413,0.000,38.920
18439,3.486,-3.350,3.343,1.479,12.831,5.501,0.000,38.927
18466,3.478,-3.350,3.343,1.504,12.831,5.588,0.000,38.964
18493,3.471,-3.350,3.343,1.529,12.831,5.676,0.000,38.994
18520,3.463,-3.350,3.343,1.554,12.831,5.763,0.000,39.036
18547,3.456,-3.350,3.343,1.579,12.831,5.850,0.000,39.007
18574,3.449,-3.350,3.343,1.604,12.831,5.937,0.000,39.079
18601,3.442,-3.350,3.343,1.629,12.831,6.023,0.000,39.092
18628,3.435,-3.350,3.343,1.655,12.831,6.110,0.000,39.129
18655,3.429,-3.350,3.343,1.680,12.831,6.196,0.000,39.186
18682,3.422,-3.350,3.343,1.705,12.831,6.282,0.000,39.224
18709,3.416,-3.350,3.343,1.730,12.831,6.368,0.000,39.272
18736,3.410,-3.350,3.343,1.755,12.831,6.453,0.000,39.293
18763,3.403,-3.350,3.343,1.780,12.831,6.539,0.000,39.314
18790,3.397,-3.350,3.343,1.805,12.831,6.625,0.000,39.369
18817,3.391,-3.350,3.343,1.830,12.831,6.710,0.000,39.404
18844,3.385,-3.350,3.343,1.856,12.831,6.795,0.000,39.435
18871,3.380,-3.350,3.343,1.881,12.831,6.880,0.000,39.512
18898,3.374,-3.350,3.343,1.906,12.831,6.965,0.000,39.501
18925,3.368,-3.350,3.343,1.931,12.831,7.049,0.000,39.534
18952,3.363,-3.350,3.343,1.956,12.831,7.134,0.000,39.587
18979,3.357,-3.350,3.343,1.981,12.831,7.218,0.000,39.566
19006,3.352,-3.350,3.343,2.006,12.831,7.303,0.000,39.639
19033,3.347,-3.350,3.343,2.031,12.831,7.387,0.000,39.652
19060,3.342,-3.350,3.343,2.057,12.831,7.471,0.000,39.686
19087,3.336,-3.350,3.343,2.082,12.831,7.555,0.000,39.779
19114,3.331,-3.350,3.343,2.107,12.831,7.639,0.000,39.786
19141,3.326,-3.350,3.343,2.132,12.831,7.722,0.000,39.809
19168,3.320,-3.350,3.343,2.157,12.831,7.806,0.000,39.856
19195,3.315,-3.350,3.343,2.182,12.831,7.889,0.000,39.859
19222,3.309,-3.350,3.343,2.207,12.831,7.972,0.000,39.880
19249,3.303,-3.350,3.343,2.232,12.831,8.055,0.000,39.954
19276,3.298,-3.350,3.343,2.258,12.831,8.138,0.000,39.934
19303,3.292,-3.350,3.343,2.283,12.831,8.221,0.000,39.967
19330,3.286,-3.350,3.343,2.308,12.831,8.304,0.000,40.004
19357,3.279,-3.350,3.343,2.333,12.831,8.386,0.000,40.020
19384,3.273,-3.350,3.343,2.358,12.831,8.468,0.000,40.060
19411,3.266,-3.350,3.343,2.383,12.831,8.551,0.000,40.127
19438,3.259,-3.350,3.343,2.408,12.831,8.633,0.000,40.100
19465,3.252,-3.350,3.343,2.433,12.831,8.714,0.000,40.143
19492,3.245,-3.350,3.343,2.459,12.831,8.796,0.000,40.188
19519,3.238,-3.350,3.343,2.484,12.831,8.877,0.000,40.147
19546,3.230,-3.350,3.343,2.509,12.831,8.959,0.000,40.214
19573,3.222,-3.350,3.343,2.534,12.831,9.040,0.000,40.222
19600,3.214,-3.350,3.343,2.559,12.831,9.121,0.000,40.289
19627,3.206,-3.350,3.343,2.584,12.831,9.201,0.000,40.316
19654,3.197,-3.350,3.343,2.609,12.831,9.282,0.000,40.357
19681,3.188,-3.350,3.343,2.634,12.831,9.362,0.000,40.417
19708,3.180,-3.350,3.343,2.660,12.831,9.442,0.000,40.432
19735,3.170,-3.350,3.343,2.685,12.831,9.522,0.000,40.529
19762,3.161,-3.350,3.343,2.710,12.831,9.601,0.000,40.552
19789,3.151,-3.350,3.343,2.735,12.831,9.681,0.000,40.497
19816,3.141,-3.350,3.343,2.760,12.831,9.760,0.000,40.598
19843,3.131,-3.350,3.343,2.785,12.831,9.838,0.000,40.633
19870,3.120,-3.350,3.343,2.810,12.831,9.917,0.000,40.714
19897,3.109,-3.350,3.343,2.835,12.831,9.995,0.000,40.734
19924,3.097,-3.350,3.343,2.861,12.831,10.073,-0.001,40.806
19951,3.085,-3.350,3.343,2.886,12.831,10.151,0.000,40.903
19978,3.072,-3.350,3.343,2.911,12.831,10.228,-0.001,40.940
20005,3.059,-3.350,3.343,2.936,12.831,10.305,-0.001,41.055
20032,3.044,-3.350,3.343,2.961,12.831,10.382,-0.001,41.164
20059,3.028,-3.350,3.343,2.986,12.831,10.458,-0.001,41.255
20086,3.011,-3.350,3.343,3.011,12.831,10.534,-0.001,41.376
20113,2.991,-3.350,3.343,3.037,12.831,10.609,-0.001,41.496
20140,2.970,-3.350,3.343,3.062,12.831,10.684,-0.001,41.624
20167,2.946,-3.350,3.343,3.087,12.831,10.759,-0.001,41.804
20194,2.918,-3.350,3.343,3.112,12.831,10.832,-0.001,41.922
20221,2.886,-3.350,3.343,3.137,12.831,10.905,-0.001,42.132
20248,2.849,-3.350,3.343,3.162,12.831,10.977,-0.002,42.306
20275,2.804,-3.350,3.343,3.187,12.831,11.048,-0.002,42.652
20302,2.749,-3.350,3.343,3.212,12.831,11.118,-0.002,42.939
20329,2.678,-3.350,3.343,3.238,12.831,11.186,-0.003,43.272
20356,2.583,-3.350,3.343,3.263,12.831,11.252,-0.004,43.703
20383,2.979,0.000,3.343,3.279,12.831,11.295,0.006,44.158
20410,3.044,0.000,3.343,3.279,12.831,11.295,0.001,43.820
20437,3.067,0.000,3.343,3.279,12.831,11.295,0.001,43.344
20464,3.078,0.000,3.343,3.279,12.831,11.295,0.000,42.882
20491,3.085,0.000,3.343,3.279,12.831,11.295,0.000,42.410
20518,3.089,0.000,3.343,3.279,12.831,11.295,0.000,42.005
20545,3.093,0.000,3.343,3.279,12.831,11.295,0.000,41.539
20572,3.095,0.000,3.343,3.279,12.831,11.295,0.000,41.150
20599,3.097,0.000,3.343,3.279,12.831,11.295,0.000,40.751
20626,3.099,0.000,3.343,3.279,12.831,11.295,0.000,40.432
20653,3.101,0.000,3.343,3.279,12.831,11.295,0.000,40.042
20680,3.102,0.000,3.343,3.279,12.831,11.295,0.000,39.785
20707,3.103,0.000,3.343,3.279,12.831,11.295,0.000,39.487
20734,3.104,0.000,3.343,3.279,12.831,11.295,0.000,39.164
20761,3.105,0.000,3.343,3.279,12.831,11.295,0.000,38.930
20788,3.107,0.000,3.343,3.279,12.831,11.295,0.000,38.652
20815,3.107,0.000,3.343,3.279,12.831,11.295,0.000,38.506
20842,3.108,0.000,3.343,3.279,12.831,11.295,0.000,38.225
20869,3.109,0.000,3.343,3.279,12.831,11.295,0.000,38.056
20896,3.110,0.000,3.343,3.279,12.831,11.295,0.000,37.794
20923,3.110,0.000,3.343,3.279,12.831,11.295,0.000,37.670
20950,3.111,0.000,3.343,3.279,12.831,11.295,0.000,37.445
20977,3.112,0.000,3.343,3.279,12.831,11.295,0.000,37.265
21004,3.112,0.000,3.343,3.279,12.831,11.295,0.000,37.115
21031,3.113,0.000,3.343,3.279,12.831,11.295,0.000,36.990
21058,3.113,0.000,3.343,3.279,12.831,11.295,0.000,36.860
21085,3.114,0.000,3.343,3.279,12.831,11.295,0.000,36.733
21112,3.115,0.000,3.343,3.279,12.831,11.295,0.000,36.622
21139,3.115,0.000,3.343,3.279,12.831,11.295,0.000,36.554
21166,3.115,0.000,3.343,3.279,12.831,11.295,0.000,36.403
21193,3.116,0.000,3.343,3.279,12.831,11.295,0.000,36.285
21220,3.116,0.000,3.343,3.279,12.831,11.295,0.000,36.160
21247,3.117,0.000,3.343,3.279,12.831,11.295,0.000,36.103
21274,3.117,0.000,3.343,3.279,12.831,11.295,0.000,35.981
21301,3.118,0.000,3.343,3.279,12.831,11.295,0.000,35.932
21328,3.118,0.000,3.343,3.279,12.831,11.295,0.000,35.853
21355,3.118,0.000,3.343,3.279,12.831,11.295,0.000,35.775
21382,3.119,0.000,3.343,3.279,12.831,11.295,0.000,35.718
21409,3.119,0.000,3.343,3.279,12.831,11.295,0.000,35.607
21436,3.119,0.000,3.343,3.279,12.831,11.295,0.000,35.579
21463,3.120,0.000,3.343,3.279,12.831,11.295,0.000,35.549
21490,3.120,0.000,3.343,3.279,12.831,11.295,0.000,35.494
21517,3.120,0.000,3.343,3.279,12.831,11.295,0.000,35.446
21544,3.121,0.000,3.343,3.279,12.831,11.295,0.000,35.361
21571,3.121,0.000,3.343,3.279,12.831,11.295,0.000,35.328
21598,3.121,0.000,3.343,3.279,12.831,11.295,0.000,35.334
21625,3.122,0.000,3.343,3.279,12.831,11.295,0.000,35.299
21652,3.122,0.000,3.343,3.279,12.831,11.295,0.000,35.255
21679,3.122,0.000,3.343,3.279,12.831,11.295,0.000,35.186
21706,3.123,0.000,3.343,3.279,12.831,11.295,0.000,35.186
21733,3.123,0.000,3.343,3.279,12.831,11.295,0.000,35.161
21760,3.123,0.000,3.343,3.279,12.831,11.295,0.000,35.083
21787,3.123,0.000,3.343,3.279,12.831,11.295,0.000,35.060
21814,3.124,0.000,3.343,3.279,12.831,11.295,0.000,35.058
21841,3.124,0.000,3.343,3.279,12.831,11.295,0.000,34.975
21868,3.124,0.000,3.343,3.279,12.831,11.295,0.000,34.994
21895,3.124,0.000,3.343,3.279,12.831,11.295,0.000,34.967
21922,3.124,0.000,3.343,3.279,12.831,11.295,0.000,34.960
21949,3.125,0.000,3.343,3.279,12.831,11.295,0.000,34.899
21976,3.125,0.000,3.343,3.279,12.831,11.295,0.000,34.915
22003,3.125,0.000,3.343,3.279,12.831,11.295,0.000,34.884
22030,3.125,0.000,3.343,3.279,12.831,11.295,0.000,34.864
22057,3.126,0.000,3.343,3.279,12.831,11.295,0.000,34.933
22084,3.126,0.000,3.343,3.279,12.831,11.295,0.000,34.843
22111,3.126,0.000,3.343,3.279,12.831,11.295,0.000,34.844
22138,3.126,0.000,3.343,3.279,12.831,11.295,0.000,34.828
22165,3.127,0.000,3.343,3.279,12.831,11.295,0.000,34.819
22192,3.127,0.000,3.343,3.279,12.831,11.295,0.000,34.797
22219,3.127,0.000,3.343,3.279,12.831,11.295,0.000,34.802
22246,3.127,0.000,3.343,3.279,12.831,11.295,0.000,34.777
22273,3.127,0.000,3.343,3.279,12.831,11.295,0.000,34.750
22300,3.128,0.000,3.343,3.279,12.831,11.295,0.000,34.740
22327,3.128,0.000,3.343,3.279,12.831,11.295,0.000,34.784
22354,3.128,0.000,3.343,3.279,12.831,11.295,0.000,34.765
22381,3.128,0.000,3.343,3.279,12.831,11.295,0.000,34.725
22408,3.128,0.000,3.343,3.279,12.831,11.295,0.000,34.739
22435,3.128,0.000,3.343,3.279,12.831,11.295,0.000,34.699
22462,3.129,0.000,3.343,3.279,12.831,11.295,0.000,34.707
22489,3.129,0.000,3.343,3.279,12.831,11.295,0.000,34.716
22516,3.129,0.000,3.343,3.279,12.831,11.295,0.000,34.744
22543,3.129,0.000,3.343,3.279,12.831,11.295,0.000,34.734
22570,3.129,0.000,3.343,3.279,12.831,11.295,0.000,34.739
22597,3.129,0.000,3.343,3.279,12.831,11.295,0.000,34.696
22624,3.130,0.000,3.343,3.279,12.831,11.295,0.000,34.684
22651,3.130,0.000,3.343,3.279,12.831,11.295,0.000,34.726
22678,3.130,0.000,3.343,3.279,12.831,11.295,0.000,34.657
22705,3.130,0.000,3.343,3.279,12.831,11.295,0.000,34.690
22732,3.130,0.000,3.343,3.279,12.831,11.295,0.000,34.668
22759,3.131,0.000,3.343,3.279,12.831,11.295,0.000,34.657
22786,3.131,0.000,3.343,3.279,12.831,11.295,0.000,34.686
22813,3.131,0.000,3.343,3.279,12.831,11.295,0.000,34.655
22840,3.131,0.000,3.343,3.279,12.831,11.295,0.000,34.664
22867,3.131,0.000,3.343,3.279,12.831,11.295,0.000,34.633
22894,3.131,0.000,3.343,3.279,12.831,11.295,0.000,34.660
22921,3.132,0.000,3.343,3.279,12.831,11.295,0.000,34.688
22948,3.132,0.000,3.343,3.279,12.831,11.295,0.000,34.707
22975,3.132,0.000,3.343,3.279,12.831,11.295,0.000,34.628
23002,3.132,0.000,3.343,3.279,12.831,11.295,0.000,34.650
23029,3.132,0.000,3.343,3.279,12.831,11.295,0.000,34.645
23056,3.132,0.000,3.343,3.279,12.831,11.295,0.000,34.640
23083,3.132,0.000,3.343,3.279,12.831,11.295,0.000,34.654
23110,3.133,0.000,3.343,3.279,12.831,11.295,0.000,34.627
23137,3.133,0.000,3.343,3.279,12.831,11.295,0.000,34.661
23164,3.133,0.000,3.343,3.279,12.831,11.295,0.000,34.655
23191,3.133,0.000,3.343,3.279,12.831,11.295,0.000,34.651
23218,3.133,0.000,3.343,3.279,12.831,11.295,0.000,34.652
23245,3.133,0.000,3.343,3.279,12.831,11.295,0.000,34.601
23272,3.133,0.000,3.343,3.279,12.831,11.295,0.000,34.631
23299,3.134,0.000,3.343,3.279,12.831,11.295,0.000,34.608
23326,3.134,0.000,3.343,3.279,12.831,11.295,0.000,34.651
23353,3.134,0.000,3.343,3.279,12.831,11.295,0.000,34.651
23380,3.134,0.000,3.343,3.279,12.831,11.295,0.000,34.601
23407,3.134,0.000,3.343,3.279,12.831,11.295,0.000,34.632
23434,3.134,0.000,3.343,3.279,12.831,11.295,0.000,34.644
23461,3.134,0.000,3.343,3.279,12.831,11.295,0.000,34.612
23488,3.134,0.000,3.343,3.279,12.831,11.295,0.000,34.616
23515,3.135,0.000,3.343,3.279,12.831,11.295,0.000,34.611
23542,3.135,0.000,3.343,3.279,12.831,11.295,0.000,34.638
23569,3.135,0.000,3.343,3.279,12.831,11.295,0.000,34.608
23596,3.135,0.000,3.343,3.279,12.831,11.295,0.000,34.645
23623,3.135,0.000,3.343,3.279,12.831,11.295,0.000,34.606
23650,3.135,0.000,3.343,3.279,12.831,11.295,0.000,34.642
23677,3.135,0.000,3.343,3.279,12.831,11.295,0.000,34.614
23704,3.135,0.000,3.343,3.279,12.831,11.295,0.000,34.587
23731,3.135,0.000,3.343,3.279,12.831,11.295,0.000,34.635
23758,3.136,0.000,3.343,3.279,12.831,11.295,0.000,34.584
23785,3.136,0.000,3.343,3.279,12.831,11.295,0.000,34.608
23812,3.136,0.000,3.343,3.279,12.831,11.295,0.000,34.617
23839,3.136,0.000,3.343,3.279,12.831,11.295,0.000,34.644
23866,3.136,0.000,3.343,3.279,12.831,11.295,0.000,34.623
23893,3.136,0.000,3.343,3.279,12.831,11.295,0.000,34.589
23920,3.136,0.000,3.343,3.279,12.831,11.295,0.000,34.571
23947,3.136,0.000,3.343,3.279,12.831,11.295,0.000,34.598
23974,3.137,0.000,3.343,3.279,12.831,11.295,0.000,34.638
23974,3.137,0.000,3.343,3.279,12.831,11.295,0.000,34.638