File: data/T35/1C/5.csv
time_s,voltage_v,current_a,chargecapacity_ah,dischargecapacity_ah,charge_energy_wh,discharge_energy_wh,voltagedot_v_per_s,temp_degc
1,2.960,0.000,0.000,0.000,0.000,0.000,0.000,34.210
28,2.960,0.000,0.000,0.000,0.000,0.000,0.000,34.241
55,2.960,0.000,0.000,0.000,0.000,0.000,0.000,34.198
82,2.960,0.000,0.000,0.000,0.000,0.000,0.000,34.145
109,2.960,0.000,0.000,0.000,0.000,0.000,0.000,34.232
136,2.960,0.000,0.000,0.000,0.000,0.000,0.000,34.232
163,2.960,0.000,0.000,0.000,0.000,0.000,0.000,34.205
190,2.960,0.000,0.000,0.000,0.000,0.000,0.000,34.218
217,2.960,0.000,0.000,0.000,0.000,0.000,0.000,34.239
244,2.960,0.000,0.000,0.000,0.000,0.000,0.000,34.208
271,2.960,0.000,0.000,0.000,0.000,0.000,0.000,34.215
298,2.960,0.000,0.000,0.000,0.000,0.000,0.000,34.202
325,2.960,0.000,0.000,0.000,0.000,0.000,0.000,34.211
352,2.961,0.000,0.000,0.000,0.000,0.000,0.000,34.209
379,2.961,0.000,0.000,0.000,0.000,0.000,0.000,34.200
406,2.961,0.000,0.000,0.000,0.000,0.000,0.000,34.224
433,2.961,0.000,0.000,0.000,0.000,0.000,0.000,34.245
460,2.961,0.000,0.000,0.000,0.000,0.000,0.000,34.249
487,2.961,0.000,0.000,0.000,0.000,0.000,0.000,34.272
514,2.961,0.000,0.000,0.000,0.000,0.000,0.000,34.210
541,2.961,0.000,0.000,0.000,0.000,0.000,0.000,34.256
568,2.961,0.000,0.000,0.000,0.000,0.000,0.000,34.225
595,2.961,0.000,0.000,0.000,0.000,0.000,0.000,34.246
622,2.961,0.000,0.000,0.000,0.000,0.000,0.000,34.230
649,2.961,0.000,0.000,0.000,0.000,0.000,0.000,34.218
676,2.961,0.000,0.000,0.000,0.000,0.000,0.000,34.189
703,2.961,0.000,0.000,0.000,0.000,0.000,0.000,34.247
730,2.961,0.000,0.000,0.000,0.000,0.000,0.000,34.197
757,2.961,0.000,0.000,0.000,0.000,0.000,0.000,34.240
784,2.961,0.000,0.000,0.000,0.000,0.000,0.000,34.222
811,2.961,0.000,0.000,0.000,0.000,0.000,0.000,34.194
838,2.961,0.000,0.000,0.000,0.000,0.000,0.000,34.194
865,2.962,0.000,0.000,0.000,0.000,0.000,0.000,34.200
892,2.962,0.000,0.000,0.000,0.000,0.000,0.000,34.220
919,2.962,0.000,0.000,0.000,0.000,0.000,0.000,34.205
946,2.962,0.000,0.000,0.000,0.000,0.000,0.000,34.256
973,2.962,0.000,0.000,0.000,0.000,0.000,0.000,34.224
1000,2.962,0.000,0.000,0.000,0.000,0.000,0.000,34.240
1027,2.962,0.000,0.000,0.000,0.000,0.000,0.000,34.225
1054,2.962,0.000,0.000,0.000,0.000,0.000,0.000,34.219
1081,2.962,0.000,0.000,0.000,0.000,0.000,0.000,34.264
1108,2.962,0.000,0.000,0.000,0.000,0.000,0.000,34.225
1135,2.962,0.000,0.000,0.000,0.000,0.000,0.000,34.241
1162,2.962,0.000,0.000,0.000,0.000,0.000,0.000,34.244
1189,2.962,0.000,0.000,0.000,0.000,0.000,0.000,34.204
1216,2.962,0.000,0.000,0.000,0.000,0.000,0.000,34.212
1243,2.962,0.000,0.000,0.000,0.000,0.000,0.000,34.231
1270,2.962,0.000,0.000,0.000,0.000,0.000,0.000,34.209
1297,2.962,0.000,0.000,0.000,0.000,0.000,0.000,34.236
1324,2.962,0.000,0.000,0.000,0.000,0.000,0.000,34.227
1351,2.962,0.000,0.000,0.000,0.000,0.000,0.000,34.201
1378,2.962,0.000,0.000,0.000,0.000,0.000,0.000,34.199
1405,2.963,0.000,0.000,0.000,0.000,0.000,0.000,34.197
1432,2.963,0.000,0.000,0.000,0.000,0.000,0.000,34.195
1459,2.963,0.000,0.000,0.000,0.000,0.000,0.000,34.146
1486,2.963,0.000,0.000,0.000,0.000,0.000,0.000,34.198
1513,2.963,0.000,0.000,0.000,0.000,0.000,0.000,34.193
1540,2.963,0.000,0.000,0.000,0.000,0.000,0.000,34.204
1567,2.963,0.000,0.000,0.000,0.000,0.000,0.000,34.221
1594,2.963,0.000,0.000,0.000,0.000,0.000,0.000,34.197
1621,2.963,0.000,0.000,0.000,0.000,0.000,0.000,34.193
1648,2.963,0.000,0.000,0.000,0.000,0.000,0.000,34.226
1675,2.963,0.000,0.000,0.000,0.000,0.000,0.000,34.190
1702,2.963,0.000,0.000,0.000,0.000,0.000,0.000,34.225
1729,2.963,0.000,0.000,0.000,0.000,0.000,0.000,34.215
1756,2.963,0.000,0.000,0.000,0.000,0.000,0.000,34.224
1783,2.963,0.000,0.000,0.000,0.000,0.000,0.000,34.220
1810,2.963,0.000,0.000,0.000,0.000,0.000,0.000,34.195
1837,2.963,0.000,0.000,0.000,0.000,0.000,0.000,34.218
1864,2.963,0.000,0.000,0.000,0.000,0.000,0.000,34.213
1891,2.963,0.000,0.000,0.000,0.000,0.000,0.000,34.226
1918,2.963,0.000,0.000,0.000,0.000,0.000,0.000,34.210
1945,2.964,0.000,0.000,0.000,0.000,0.000,0.000,34.203
1972,2.964,0.000,0.000,0.000,0.000,0.000,0.000,34.204
1999,2.963,0.000,0.000,0.000,0.000,0.000,0.000,34.212
2026,2.964,0.000,0.000,0.000,0.000,0.000,0.000,34.193
2053,2.964,0.000,0.000,0.000,0.000,0.000,0.000,34.231
2080,2.964,0.000,0.000,0.000,0.000,0.000,0.000,34.204
2107,2.964,0.000,0.000,0.000,0.000,0.000,0.000,34.236
2134,2.964,0.000,0.000,0.000,0.000,0.000,0.000,34.236
2161,2.964,0.000,0.000,0.000,0.000,0.000,0.000,34.242
2188,2.964,0.000,0.000,0.000,0.000,0.000,0.000,34.176
2215,2.964,0.000,0.000,0.000,0.000,0.000,0.000,34.245
2242,2.964,0.000,0.000,0.000,0.000,0.000,0.000,34.252
2269,2.964,0.000,0.000,0.000,0.000,0.000,0.000,34.192
2296,2.964,0.000,0.000,0.000,0.000,0.000,0.000,34.228
2323,2.964,0.000,0.000,0.000,0.000,0.000,0.000,34.208
2350,2.964,0.000,0.000,0.000,0.000,0.000,0.000,34.211
2377,2.964,0.000,0.000,0.000,0.000,0.000,0.000,34.214
2404,2.964,0.000,0.000,0.000,0.000,0.000,0.000,34.239
2431,2.964,0.000,0.000,0.000,0.000,0.000,0.000,34.190
2458,2.964,0.000,0.000,0.000,0.000,0.000,0.000,34.246
2485,2.964,0.000,0.000,0.000,0.000,0.000,0.000,34.188
2512,2.964,0.000,0.000,0.000,0.000,0.000,0.000,34.241
2539,2.964,0.000,0.000,0.000,0.000,0.000,0.000,34.172
2566,2.965,0.000,0.000,0.000,0.000,0.000,0.000,34.193
2593,2.965,0.000,0.000,0.000,0.000,0.000,0.000,34.303
2620,2.965,0.000,0.000,0.000,0.000,0.000,0.000,34.199
2647,2.965,0.000,0.000,0.000,0.000,0.000,0.000,34.230
2674,2.965,0.000,0.000,0.000,0.000,0.000,0.000,34.218
2701,2.965,0.000,0.000,0.000,0.000,0.000,0.000,34.211
2728,2.965,0.000,0.000,0.000,0.000,0.000,0.000,34.214
2755,2.965,0.000,0.000,0.000,0.000,0.000,0.000,34.234
2782,2.965,0.000,0.000,0.000,0.000,0.000,0.000,34.189
2809,2.965,0.000,0.000,0.000,0.000,0.000,0.000,34.210
2836,2.965,0.000,0.000,0.000,0.000,0.000,0.000,34.204
2863,2.965,0.000,0.000,0.000,0.000,0.000,0.000,34.252
2890,2.965,0.000,0.000,0.000,0.000,0.000,0.000,34.185
2917,2.965,0.000,0.000,0.000,0.000,0.000,0.000,34.209
2944,2.965,0.000,0.000,0.000,0.000,0.000,0.000,34.212
2971,2.965,0.000,0.000,0.000,0.000,0.000,0.000,34.230
2998,2.965,0.000,0.000,0.000,0.000,0.000,0.000,34.181
3025,2.965,0.000,0.000,0.000,0.000,0.000,0.000,34.200
3052,2.965,0.000,0.000,0.000,0.000,0.000,0.000,34.206
3079,2.965,0.000,0.000,0.000,0.000,0.000,0.000,34.190
3106,2.965,0.000,0.000,0.000,0.000,0.000,0.000,34.205
3133,2.965,0.000,0.000,0.000,0.000,0.000,0.000,34.227
3160,2.966,0.000,0.000,0.000,0.000,0.000,0.000,34.204
3187,2.966,0.000,0.000,0.000,0.000,0.000,0.000,34.177
3214,2.966,0.000,0.000,0.000,0.000,0.000,0.000,34.232
3241,2.966,0.000,0.000,0.000,0.000,0.000,0.000,34.194
3268,2.966,0.000,0.000,0.000,0.000,0.000,0.000,34.214
3295,2.966,0.000,0.000,0.000,0.000,0.000,0.000,34.215
3322,2.966,0.000,0.000,0.000,0.000,0.000,0.000,34.214
3349,2.966,0.000,0.000,0.000,0.000,0.000,0.000,34.198
3376,2.966,0.000,0.000,0.000,0.000,0.000,0.000,34.215
3403,2.966,0.000,0.000,0.000,0.000,0.000,0.000,34.203
3430,2.966,0.000,0.000,0.000,0.000,0.000,0.000,34.231
3457,2.966,0.000,0.000,0.000,0.000,0.000,0.000,34.227
3484,2.966,0.000,0.000,0.000,0.000,0.000,0.000,34.202
3511,2.966,0.000,0.000,0.000,0.000,0.000,0.000,34.264
3538,2.966,0.000,0.000,0.000,0.000,0.000,0.000,34.253
3565,2.966,0.000,0.000,0.000,0.000,0.000,0.000,34.264
3592,2.966,0.000,0.000,0.000,0.000,0.000,0.000,34.232
3618,3.187,1.625,0.008,0.000,0.026,0.000,0.003,34.208
3645,3.253,1.625,0.020,0.000,0.065,0.000,0.002,34.190
3672,3.302,1.625,0.033,0.000,0.105,0.000,0.002,34.201
3699,3.340,1.625,0.045,0.000,0.145,0.000,0.001,34.175
3726,3.372,1.625,0.057,0.000,0.186,0.000,0.001,34.223
3753,3.399,1.625,0.069,0.000,0.228,0.000,0.001,34.229
3780,3.423,1.625,0.081,0.000,0.269,0.000,0.001,34.282
3807,3.444,1.625,0.093,0.000,0.311,0.000,0.001,34.267
3834,3.462,1.625,0.106,0.000,0.353,0.000,0.001,34.332
3861,3.476,1.625,0.118,0.000,0.395,0.000,0.000,34.321
3888,3.484,1.625,0.130,0.000,0.438,0.000,0.000,34.395
3915,3.488,1.625,0.142,0.000,0.480,0.000,0.000,34.455
3942,3.490,1.625,0.154,0.000,0.523,0.000,0.000,34.519
3969,3.492,1.625,0.167,0.000,0.565,0.000,0.000,34.613
3996,3.494,1.625,0.179,0.000,0.608,0.000,0.000,34.688
4023,3.496,1.625,0.191,0.000,0.651,0.000,0.000,34.799
4050,3.499,1.625,0.203,0.000,0.693,0.000,0.000,34.892
4077,3.502,1.625,0.215,0.000,0.736,0.000,0.000,34.898
4104,3.504,1.625,0.228,0.000,0.779,0.000,0.000,34.974
4131,3.507,1.625,0.240,0.000,0.821,0.000,0.000,35.083
4158,3.510,1.625,0.252,0.000,0.864,0.000,0.000,35.130
4185,3.513,1.625,0.264,0.000,0.907,0.000,0.000,35.223
4212,3.516,1.625,0.276,0.000,0.950,0.000,0.000,35.216
4239,3.518,1.625,0.289,0.000,0.993,0.000,0.000,35.310
4266,3.521,1.625,0.301,0.000,1.036,0.000,0.000,35.383
4293,3.524,1.625,0.313,0.000,1.078,0.000,0.000,35.400
4320,3.527,1.625,0.325,0.000,1.121,0.000,0.000,35.500
4347,3.530,1.625,0.337,0.000,1.164,0.000,0.000,35.528
4374,3.533,1.625,0.349,0.000,1.208,0.000,0.000,35.529
4401,3.536,1.625,0.362,0.000,1.251,0.000,0.000,35.561
4428,3.539,1.625,0.374,0.000,1.294,0.000,0.000,35.614
4455,3.542,1.625,0.386,0.000,1.337,0.000,0.000,35.668
4482,3.545,1.625,0.398,0.000,1.380,0.000,0.000,35.654
4509,3.548,1.625,0.410,0.000,1.423,0.000,0.000,35.713
4536,3.551,1.625,0.423,0.000,1.467,0.000,0.000,35.740
4563,3.554,1.625,0.435,0.000,1.510,0.000,0.000,35.771
4590,3.557,1.625,0.447,0.000,1.553,0.000,0.000,35.789
4617,3.561,1.625,0.459,0.000,1.597,0.000,0.000,35.829
4644,3.564,1.625,0.471,0.000,1.640,0.000,0.000,35.824
4671,3.568,1.625,0.484,0.000,1.684,0.000,0.000,35.876
4698,3.571,1.625,0.496,0.000,1.727,0.000,0.000,35.866
4725,3.575,1.625,0.508,0.000,1.771,0.000,0.000,35.844
4752,3.578,1.625,0.520,0.000,1.814,0.000,0.000,35.854
4779,3.582,1.625,0.532,0.000,1.858,0.000,0.000,35.862
4806,3.586,1.625,0.545,0.000,1.902,0.000,0.000,35.839
4833,3.589,1.625,0.557,0.000,1.945,0.000,0.000,35.869
4860,3.593,1.625,0.569,0.000,1.989,0.000,0.000,35.856
4887,3.596,1.625,0.581,0.000,2.033,0.000,0.000,35.808
4914,3.599,1.625,0.593,0.000,2.077,0.000,0.000,35.876
4941,3.602,1.625,0.605,0.000,2.121,0.000,0.000,35.852
4968,3.605,1.625,0.618,0.000,2.165,0.000,0.000,35.797
4995,3.608,1.625,0.630,0.000,2.209,0.000,0.000,35.810
5022,3.611,1.625,0.642,0.000,2.253,0.000,0.000,35.803
5049,3.614,1.625,0.654,0.000,2.297,0.000,0.000,35.782
5076,3.616,1.625,0.666,0.000,2.341,0.000,0.000,35.779
5103,3.619,1.625,0.679,0.000,2.385,0.000,0.000,35.798
5130,3.622,1.625,0.691,0.000,2.429,0.000,0.000,35.815
5157,3.624,1.625,0.703,0.000,2.473,0.000,0.000,35.789
5184,3.626,1.625,0.715,0.000,2.517,0.000,0.000,35.811
5211,3.629,1.625,0.727,0.000,2.561,0.000,0.000,35.811
5238,3.631,1.625,0.740,0.000,2.606,0.000,0.000,35.790
5265,3.634,1.625,0.752,0.000,2.650,0.000,0.000,35.814
5292,3.636,1.625,0.764,0.000,2.694,0.000,0.000,35.850
5319,3.639,1.625,0.776,0.000,2.739,0.000,0.000,35.823
5346,3.641,1.625,0.788,0.000,2.783,0.000,0.000,35.826
5373,3.644,1.625,0.801,0.000,2.827,0.000,0.000,35.801
5400,3.646,1.625,0.813,0.000,2.872,0.000,0.000,35.832
5427,3.649,1.625,0.825,0.000,2.916,0.000,0.000,35.836
5454,3.651,1.625,0.837,0.000,2.961,0.000,0.000,35.809
5481,3.653,1.625,0.849,0.000,3.005,0.000,0.000,35.828
5508,3.656,1.625,0.861,0.000,3.050,0.000,0.000,35.843
5535,3.658,1.625,0.874,0.000,3.094,0.000,0.000,35.853
5562,3.661,1.625,0.886,0.000,3.139,0.000,0.000,35.859
5589,3.663,1.625,0.898,0.000,3.184,0.000,0.000,35.889
5616,3.666,1.625,0.910,0.000,3.228,0.000,0.000,35.868
5643,3.668,1.625,0.922,0.000,3.273,0.000,0.000,35.848
5670,3.671,1.625,0.935,0.000,3.318,0.000,0.000,35.907
5697,3.673,1.625,0.947,0.000,3.363,0.000,0.000,35.886
5724,3.676,1.625,0.959,0.000,3.407,0.000,0.000,35.882
5751,3.678,1.625,0.971,0.000,3.452,0.000,0.000,35.934
5778,3.681,1.625,0.983,0.000,3.497,0.000,0.000,35.934
5805,3.683,1.625,0.996,0.000,3.542,0.000,0.000,35.974
5832,3.686,1.625,1.008,0.000,3.587,0.000,0.000,35.935
5859,3.688,1.625,1.020,0.000,3.632,0.000,0.000,35.979
5886,3.691,1.625,1.032,0.000,3.677,0.000,0.000,36.007
5913,3.693,1.625,1.044,0.000,3.722,0.000,0.000,36.010
5940,3.696,1.625,1.057,0.000,3.767,0.000,0.000,36.023
5967,3.698,1.625,1.069,0.000,3.812,0.000,0.000,36.027
5994,3.701,1.625,1.081,0.000,3.857,0.000,0.000,36.057
6021,3.703,1.625,1.093,0.000,3.902,0.000,0.000,36.069
6048,3.705,1.625,1.105,0.000,3.947,0.000,0.000,36.116
6075,3.708,1.625,1.117,0.000,3.992,0.000,0.000,36.113
6102,3.710,1.625,1.130,0.000,4.038,0.000,0.000,36.129
6129,3.713,1.625,1.142,0.000,4.083,0.000,0.000,36.130
6156,3.715,1.625,1.154,0.000,4.128,0.000,0.000,36.153
6183,3.717,1.625,1.166,0.000,4.174,0.000,0.000,36.103
6210,3.720,1.625,1.178,0.000,4.219,0.000,0.000,36.175
6237,3.722,1.625,1.191,0.000,4.264,0.000,0.000,36.224
6264,3.724,1.625,1.203,0.000,4.310,0.000,0.000,36.191
6291,3.727,1.625,1.215,0.000,4.355,0.000,0.000,36.193
6318,3.729,1.625,1.227,0.000,4.400,0.000,0.000,36.210
6345,3.731,1.625,1.239,0.000,4.446,0.000,0.000,36.226
6372,3.733,1.625,1.252,0.000,4.491,0.000,0.000,36.219
6399,3.736,1.625,1.264,0.000,4.537,0.000,0.000,36.228
6426,3.738,1.625,1.276,0.000,4.582,0.000,0.000,36.219
6453,3.740,1.625,1.288,0.000,4.628,0.000,0.000,36.251
6480,3.742,1.625,1.300,0.000,4.674,0.000,0.000,36.298
6507,3.744,1.625,1.312,0.000,4.719,0.000,0.000,36.288
6534,3.746,1.625,1.325,0.000,4.765,0.000,0.000,36.293
6561,3.749,1.625,1.337,0.000,4.811,0.000,0.000,36.304
6588,3.751,1.625,1.349,0.000,4.856,0.000,0.000,36.302
6615,3.753,1.625,1.361,0.000,4.902,0.000,0.000,36.281
6642,3.755,1.625,1.373,0.000,4.948,0.000,0.000,36.293
6669,3.758,1.625,1.386,0.000,4.994,0.000,0.000,36.311
6696,3.760,1.625,1.398,0.000,5.039,0.000,0.000,36.327
6723,3.762,1.625,1.410,0.000,5.085,0.000,0.000,36.339
6750,3.765,1.625,1.422,0.000,5.131,0.000,0.000,36.312
6777,3.767,1.625,1.434,0.000,5.177,0.000,0.000,36.393
6804,3.769,1.625,1.447,0.000,5.223,0.000,0.000,36.375
6831,3.772,1.625,1.459,0.000,5.269,0.000,0.000,36.384
6858,3.774,1.625,1.471,0.000,5.315,0.000,0.000,36.362
6885,3.777,1.625,1.483,0.000,5.361,0.000,0.000,36.380
6912,3.779,1.625,1.495,0.000,5.407,0.000,0.000,36.404
6939,3.782,1.625,1.508,0.000,5.453,0.000,0.000,36.419
6966,3.784,1.625,1.520,0.000,5.499,0.000,0.000,36.350
6993,3.787,1.625,1.532,0.000,5.545,0.000,0.000,36.368
7020,3.790,1.625,1.544,0.000,5.591,0.000,0.000,36.409
7047,3.792,1.625,1.556,0.000,5.638,0.000,0.000,36.361
7074,3.795,1.625,1.568,0.000,5.684,0.000,0.000,36.415
7101,3.797,1.625,1.581,0.000,5.730,0.000,0.000,36.415
7128,3.800,1.625,1.593,0.000,5.776,0.000,0.000,36.394
7155,3.803,1.625,1.605,0.000,5.823,0.000,0.000,36.426
7182,3.806,1.625,1.617,0.000,5.869,0.000,0.000,36.429
7209,3.809,1.625,1.629,0.000,5.916,0.000,0.000,36.429
7236,3.811,1.625,1.642,0.000,5.962,0.000,0.000,36.397
7263,3.814,1.625,1.654,0.000,6.009,0.000,0.000,36.422
7290,3.817,1.625,1.666,0.000,6.055,0.000,0.000,36.436
7317,3.820,1.625,1.678,0.000,6.102,0.000,0.000,36.483
7344,3.823,1.625,1.690,0.000,6.148,0.000,0.000,36.424
7371,3.826,1.625,1.703,0.000,6.195,0.000,0.000,36.442
7398,3.829,1.625,1.715,0.000,6.241,0.000,0.000,36.421
7425,3.832,1.625,1.727,0.000,6.288,0.000,0.000,36.413
7452,3.835,1.625,1.739,0.000,6.335,0.000,0.000,36.419
7479,3.839,1.625,1.751,0.000,6.382,0.000,0.000,36.458
7506,3.842,1.625,1.763,0.000,6.428,0.000,0.000,36.452
7533,3.845,1.625,1.776,0.000,6.475,0.000,0.000,36.427
7560,3.848,1.625,1.788,0.000,6.522,0.000,0.000,36.459
7587,3.851,1.625,1.800,0.000,6.569,0.000,0.000,36.438
7614,3.855,1.625,1.812,0.000,6.616,0.000,0.000,36.498
7641,3.858,1.625,1.824,0.000,6.663,0.000,0.000,36.509
7668,3.861,1.625,1.837,0.000,6.710,0.000,0.000,36.443
7695,3.864,1.625,1.849,0.000,6.757,0.000,0.000,36.471
7722,3.868,1.625,1.861,0.000,6.804,0.000,0.000,36.480
7749,3.871,1.625,1.873,0.000,6.851,0.000,0.000,36.487
7776,3.875,1.625,1.885,0.000,6.899,0.000,0.000,36.473
7803,3.878,1.625,1.898,0.000,6.946,0.000,0.000,36.474
7830,3.881,1.625,1.910,0.000,6.993,0.000,0.000,36.442
7857,3.885,1.625,1.922,0.000,7.041,0.000,0.000,36.459
7884,3.888,1.625,1.934,0.000,7.088,0.000,0.000,36.478
7911,3.892,1.625,1.946,0.000,7.135,0.000,0.000,36.461
7938,3.895,1.625,1.959,0.000,7.183,0.000,0.000,36.455
7965,3.898,1.625,1.971,0.000,7.230,0.000,0.000,36.487
7992,3.902,1.625,1.983,0.000,7.278,0.000,0.000,36.491
8019,3.905,1.625,1.995,0.000,7.325,0.000,0.000,36.437
8046,3.909,1.625,2.007,0.000,7.373,0.000,0.000,36.399
8073,3.912,1.625,2.019,0.000,7.421,0.000,0.000,36.452
8100,3.916,1.625,2.032,0.000,7.468,0.000,0.000,36.473
8127,3.919,1.625,2.044,0.000,7.516,0.000,0.000,36.455
8154,3.923,1.625,2.056,0.000,7.564,0.000,0.000,36.530
8181,3.926,1.625,2.068,0.000,7.612,0.000,0.000,36.460
8208,3.929,1.625,2.080,0.000,7.660,0.000,0.000,36.467
8235,3.933,1.625,2.093,0.000,7.708,0.000,0.000,36.471
8262,3.936,1.625,2.105,0.000,7.756,0.000,0.000,36.476
8289,3.940,1.625,2.117,0.000,7.804,0.000,0.000,36.427
8316,3.943,1.625,2.129,0.000,7.852,0.000,0.000,36.448
8343,3.947,1.625,2.141,0.000,7.900,0.000,0.000,36.419
8370,3.950,1.625,2.154,0.000,7.948,0.000,0.000,36.426
8397,3.953,1.625,2.166,0.000,7.996,0.000,0.000,36.426
8424,3.957,1.625,2.178,0.000,8.044,0.000,0.000,36.431
8451,3.960,1.625,2.190,0.000,8.092,0.000,0.000,36.473
8478,3.964,1.625,2.202,0.000,8.141,0.000,0.000,36.484
8505,3.967,1.625,2.214,0.000,8.189,0.000,0.000,36.402
8532,3.970,1.625,2.227,0.000,8.237,0.000,0.000,36.387
8559,3.974,1.625,2.239,0.000,8.286,0.000,0.000,36.480
8586,3.977,1.625,2.251,0.000,8.334,0.000,0.000,36.424
8613,3.980,1.625,2.263,0.000,8.383,0.000,0.000,36.412
8640,3.984,1.625,2.275,0.000,8.431,0.000,0.000,36.384
8667,3.987,1.625,2.288,0.000,8.480,0.000,0.000,36.407
8694,3.990,1.625,2.300,0.000,8.529,0.000,0.000,36.406
8721,3.994,1.625,2.312,0.000,8.577,0.000,0.000,36.328
8748,3.997,1.625,2.324,0.000,8.626,0.000,0.000,36.368
8775,4.001,1.625,2.336,0.000,8.675,0.000,0.000,36.346
8802,4.004,1.625,2.349,0.000,8.723,0.000,0.000,36.322
8829,4.007,1.625,2.361,0.000,8.772,0.000,0.000,36.388
8856,4.011,1.625,2.373,0.000,8.821,0.000,0.000,36.351
8883,4.014,1.625,2.385,0.000,8.870,0.000,0.000,36.353
8910,4.017,1.625,2.397,0.000,8.919,0.000,0.000,36.376
8937,4.021,1.625,2.410,0.000,8.968,0.000,0.000,36.361
8964,4.024,1.625,2.422,0.000,9.017,0.000,0.000,36.348
8991,4.028,1.625,2.434,0.000,9.066,0.000,0.000,36.341
9018,4.031,1.625,2.446,0.000,9.115,0.000,0.000,36.325
9045,4.035,1.625,2.458,0.000,9.164,0.000,0.000,36.293
9072,4.038,1.625,2.470,0.000,9.214,0.000,0.000,36.349
9099,4.042,1.625,2.483,0.000,9.263,0.000,0.000,36.354
9126,4.045,1.625,2.495,0.000,9.312,0.000,0.000,36.303
9153,4.049,1.625,2.507,0.000,9.361,0.000,0.000,36.389
9180,4.053,1.625,2.519,0.000,9.411,0.000,0.000,36.351
9207,4.057,1.625,2.531,0.000,9.460,0.000,0.000,36.303
9234,4.060,1.625,2.544,0.000,9.510,0.000,0.000,36.340
9261,4.064,1.625,2.556,0.000,9.559,0.000,0.000,36.371
9288,4.068,1.625,2.568,0.000,9.609,0.000,0.000,36.328
9315,4.072,1.625,2.580,0.000,9.658,0.000,0.000,36.373
9342,4.076,1.625,2.592,0.000,9.708,0.000,0.000,36.384
9369,4.080,1.625,2.605,0.000,9.758,0.000,0.000,36.421
9396,4.085,1.625,2.617,0.000,9.808,0.000,0.000,36.458
9423,4.089,1.625,2.629,0.000,9.857,0.000,0.000,36.378
9450,4.093,1.625,2.641,0.000,9.907,0.000,0.000,36.397
9477,4.097,1.625,2.653,0.000,9.957,0.000,0.000,36.402
9504,4.102,1.625,2.666,0.000,10.007,0.000,0.000,36.450
9531,4.106,1.625,2.678,0.000,10.057,0.000,0.000,36.449
9558,4.111,1.625,2.690,0.000,10.107,0.000,0.000,36.436
9585,4.115,1.625,2.702,0.000,10.157,0.000,0.000,36.453
9612,4.120,1.625,2.714,0.000,10.208,0.000,0.000,36.464
9639,4.125,1.625,2.726,0.000,10.258,0.000,0.000,36.455
9666,4.129,1.625,2.739,0.000,10.308,0.000,0.000,36.454
9693,4.134,1.625,2.751,0.000,10.358,0.000,0.000,36.446
9720,4.139,1.625,2.763,0.000,10.409,0.000,0.000,36.529
9747,4.144,1.625,2.775,0.000,10.459,0.000,0.000,36.484
9774,4.148,1.625,2.787,0.000,10.510,0.000,0.000,36.502
9801,4.153,1.625,2.800,0.000,10.560,0.000,0.000,36.552
9828,4.158,1.625,2.812,0.000,10.611,0.000,0.000,36.531
9855,4.163,1.625,2.824,0.000,10.662,0.000,0.000,36.569
9882,4.168,1.625,2.836,0.000,10.713,0.000,0.000,36.552
9909,4.173,1.625,2.848,0.000,10.763,0.000,0.000,36.582
9936,4.178,1.625,2.861,0.000,10.814,0.000,0.000,36.603
9963,4.182,1.625,2.873,0.000,10.865,0.000,0.000,36.610
9990,4.187,1.625,2.885,0.000,10.916,0.000,0.000,36.608
10017,4.192,1.625,2.897,0.000,10.967,0.000,0.000,36.584
10044,4.197,1.625,2.909,0.000,11.019,0.000,0.000,36.592
10070,4.200,1.593,2.921,0.000,11.068,0.000,0.000,36.631
10097,4.200,1.520,2.933,0.000,11.117,0.000,0.000,36.621
10124,4.200,1.465,2.944,0.000,11.164,0.000,0.000,36.602
10151,4.200,1.416,2.955,0.000,11.210,0.000,0.000,36.602
10178,4.200,1.373,2.965,0.000,11.253,0.000,0.000,36.664
10205,4.200,1.333,2.975,0.000,11.296,0.000,0.000,36.563
10232,4.200,1.296,2.985,0.000,11.337,0.000,0.000,36.599
10259,4.200,1.260,2.995,0.000,11.378,0.000,0.000,36.546
10286,4.200,1.227,3.004,0.000,11.417,0.000,0.000,36.471
10313,4.200,1.195,3.013,0.000,11.455,0.000,0.000,36.517
10340,4.200,1.163,3.022,0.000,11.492,0.000,0.000,36.467
10367,4.200,1.134,3.031,0.000,11.528,0.000,0.000,36.401
10394,4.200,1.106,3.039,0.000,11.564,0.000,0.000,36.393
10421,4.200,1.079,3.047,0.000,11.598,0.000,0.000,36.359
10448,4.200,1.053,3.055,0.000,11.631,0.000,0.000,36.297
10475,4.200,1.026,3.063,0.000,11.664,0.000,0.000,36.274
10502,4.200,1.003,3.071,0.000,11.696,0.000,0.000,36.236
10529,4.200,0.979,3.078,0.000,11.727,0.000,0.000,36.190
10556,4.200,0.955,3.085,0.000,11.758,0.000,0.000,36.146
10583,4.200,0.932,3.092,0.000,11.788,0.000,0.000,36.099
10610,4.200,0.911,3.099,0.000,11.817,0.000,0.000,36.058
10637,4.200,0.890,3.106,0.000,11.845,0.000,0.000,36.052
10664,4.200,0.869,3.113,0.000,11.873,0.000,0.000,36.022
10691,4.200,0.848,3.119,0.000,11.900,0.000,0.000,35.936
10718,4.200,0.829,3.125,0.000,11.926,0.000,0.000,35.951
10745,4.200,0.809,3.132,0.000,11.952,0.000,0.000,35.868
10772,4.200,0.791,3.138,0.000,11.977,0.000,0.000,35.827
10799,4.200,0.771,3.143,0.000,12.002,0.000,0.000,35.808
10826,4.200,0.752,3.149,0.000,12.026,0.000,0.000,35.774
10853,4.200,0.734,3.155,0.000,12.049,0.000,0.000,35.740
10880,4.200,0.716,3.160,0.000,12.072,0.000,0.000,35.704
10907,4.200,0.698,3.165,0.000,12.094,0.000,0.000,35.632
10934,4.200,0.681,3.171,0.000,12.116,0.000,0.000,35.628
10961,4.200,0.665,3.176,0.000,12.137,0.000,0.000,35.589
10988,4.200,0.648,3.181,0.000,12.158,0.000,0.000,35.540
11015,4.200,0.631,3.185,0.000,12.178,0.000,0.000,35.535
11042,4.200,0.615,3.190,0.000,12.197,0.000,0.000,35.496
11069,4.200,0.600,3.195,0.000,12.217,0.000,0.000,35.447
11096,4.200,0.584,3.199,0.000,12.235,0.000,0.000,35.446
11123,4.200,0.569,3.203,0.000,12.253,0.000,0.000,35.385
11150,4.200,0.553,3.208,0.000,12.271,0.000,0.000,35.342
11177,4.200,0.539,3.212,0.000,12.288,0.000,0.000,35.335
11204,4.200,0.525,3.216,0.000,12.305,0.000,0.000,35.338
11231,4.200,0.510,3.219,0.000,12.321,0.000,0.000,35.333
11258,4.200,0.497,3.223,0.000,12.337,0.000,0.000,35.224
11285,4.200,0.483,3.227,0.000,12.353,0.000,0.000,35.199
11312,4.200,0.469,3.230,0.000,12.368,0.000,0.000,35.193
11339,4.200,0.457,3.234,0.000,12.382,0.000,0.000,35.169
11366,4.200,0.444,3.237,0.000,12.396,0.000,0.000,35.133
11393,4.200,0.431,3.241,0.000,12.410,0.000,0.000,35.108
11420,4.200,0.419,3.244,0.000,12.423,0.000,0.000,35.123
11447,4.200,0.407,3.247,0.000,12.436,0.000,0.000,35.006
11474,4.200,0.396,3.250,0.000,12.449,0.000,0.000,35.060
11501,4.200,0.384,3.253,0.000,12.461,0.000,0.000,35.010
11528,4.200,0.372,3.256,0.000,12.473,0.000,0.000,34.994
11555,4.200,0.362,3.258,0.000,12.485,0.000,0.000,34.978
11582,4.200,0.352,3.261,0.000,12.496,0.000,0.000,34.938
11609,4.200,0.342,3.264,0.000,12.507,0.000,0.000,34.950
11636,4.200,0.331,3.266,0.000,12.518,0.000,0.000,34.883
11663,4.200,0.321,3.269,0.000,12.528,0.000,0.000,34.895
11690,4.200,0.311,3.271,0.000,12.538,0.000,0.000,34.876
11717,4.200,0.303,3.273,0.000,12.548,0.000,0.000,34.854
11744,4.200,0.294,3.276,0.000,12.557,0.000,0.000,34.822
11771,4.200,0.285,3.278,0.000,12.566,0.000,0.000,34.786
11798,4.200,0.275,3.280,0.000,12.575,0.000,0.000,34.780
11825,4.200,0.267,3.282,0.000,12.583,0.000,0.000,34.740
11852,4.200,0.260,3.284,0.000,12.592,0.000,0.000,34.732
11879,4.200,0.252,3.286,0.000,12.600,0.000,0.000,34.760
11906,4.200,0.245,3.288,0.000,12.608,0.000,0.000,34.727
11933,4.200,0.237,3.289,0.000,12.615,0.000,0.000,34.707
11960,4.200,0.230,3.291,0.000,12.623,0.000,0.000,34.710
11987,4.200,0.223,3.293,0.000,12.630,0.000,0.000,34.655
12014,4.200,0.217,3.295,0.000,12.637,0.000,0.000,34.655
12041,4.200,0.210,3.296,0.000,12.643,0.000,0.000,34.634
12068,4.200,0.204,3.298,0.000,12.650,0.000,0.000,34.648
12095,4.200,0.198,3.299,0.000,12.656,0.000,0.000,34.628
12122,4.200,0.191,3.301,0.000,12.662,0.000,0.000,34.575
12149,4.200,0.186,3.302,0.000,12.668,0.000,0.000,34.551
12176,4.200,0.180,3.303,0.000,12.674,0.000,0.000,34.574
12203,4.200,0.175,3.305,0.000,12.680,0.000,0.000,34.583
12230,4.200,0.170,3.306,0.000,12.685,0.000,0.000,34.531
12257,4.200,0.165,3.307,0.000,12.690,0.000,0.000,34.571
12284,4.200,0.159,3.309,0.000,12.695,0.000,0.000,34.511
12311,4.200,0.155,3.310,0.000,12.700,0.000,0.000,34.528
12338,4.200,0.150,3.311,0.000,12.705,0.000,0.000,34.490
12365,4.200,0.146,3.312,0.000,12.710,0.000,0.000,34.520
12392,4.200,0.142,3.313,0.000,12.714,0.000,0.000,34.548
12419,4.200,0.138,3.314,0.000,12.719,0.000,0.000,34.484
12446,4.200,0.134,3.315,0.000,12.723,0.000,0.000,34.474
12473,4.200,0.130,3.316,0.000,12.727,0.000,0.000,34.478
12500,4.200,0.127,3.317,0.000,12.731,0.000,0.000,34.462
12527,4.200,0.123,3.318,0.000,12.735,0.000,0.000,34.459
12554,4.200,0.120,3.319,0.000,12.739,0.000,0.000,34.455
12581,4.200,0.116,3.320,0.000,12.743,0.000,0.000,34.448
12608,4.200,0.113,3.321,0.000,12.746,0.000,0.000,34.386
12635,4.200,0.110,3.322,0.000,12.750,0.000,0.000,34.418
12662,4.200,0.107,3.322,0.000,12.753,0.000,0.000,34.432
12689,4.200,0.103,3.323,0.000,12.757,0.000,0.000,34.412
12716,4.200,0.101,3.324,0.000,12.760,0.000,0.000,34.420
12743,4.200,0.098,3.325,0.000,12.763,0.000,0.000,34.429
12770,4.200,0.096,3.325,0.000,12.766,0.000,0.000,34.428
12797,4.200,0.093,3.326,0.000,12.769,0.000,0.000,34.368
12824,4.200,0.091,3.327,0.000,12.772,0.000,0.000,34.388
12851,4.200,0.088,3.327,0.000,12.775,0.000,0.000,34.366
12878,4.200,0.086,3.328,0.000,12.777,0.000,0.000,34.361
12905,4.200,0.083,3.329,0.000,12.780,0.000,0.000,34.317
12932,4.200,0.082,3.329,0.000,12.783,0.000,0.000,34.350
12959,4.200,0.080,3.330,0.000,12.785,0.000,0.000,34.389
12986,4.200,0.077,3.331,0.000,12.788,0.000,0.000,34.313
13013,4.200,0.075,3.331,0.000,12.790,0.000,0.000,34.378
13040,4.200,0.074,3.332,0.000,12.792,0.000,0.000,34.342
13067,4.200,0.072,3.332,0.000,12.795,0.000,0.000,34.363
13094,4.200,0.070,3.333,0.000,12.797,0.000,0.000,34.376
13121,4.200,0.068,3.333,0.000,12.799,0.000,0.000,34.328
13148,4.200,0.067,3.334,0.000,12.801,0.000,0.000,34.333
13175,4.196,0.000,3.334,0.000,12.802,0.000,0.000,34.326
13202,4.195,0.000,3.334,0.000,12.802,0.000,0.000,34.318
13229,4.195,0.000,3.334,0.000,12.802,0.000,0.000,34.310
13256,4.194,0.000,3.334,0.000,12.802,0.000,0.000,34.296
13283,4.194,0.000,3.334,0.000,12.802,0.000,0.000,34.330
13310,4.193,0.000,3.334,0.000,12.802,0.000,0.000,34.294
13337,4.193,0.000,3.334,0.000,12.802,0.000,0.000,34.370
13364,4.193,0.000,3.334,0.000,12.802,0.000,0.000,34.315
13391,4.192,0.000,3.334,0.000,12.802,0.000,0.000,34.304
13418,4.192,0.000,3.334,0.000,12.802,0.000,0.000,34.283
13445,4.192,0.000,3.334,0.000,12.802,0.000,0.000,34.301
13472,4.192,0.000,3.334,0.000,12.802,0.000,0.000,34.301
13499,4.191,0.000,3.334,0.000,12.802,0.000,0.000,34.248
13526,4.191,0.000,3.334,0.000,12.802,0.000,0.000,34.290
13553,4.191,0.000,3.334,0.000,12.802,0.000,0.000,34.262
13580,4.191,0.000,3.334,0.000,12.802,0.000,0.000,34.282
13607,4.190,0.000,3.334,0.000,12.802,0.000,0.000,34.239
13634,4.190,0.000,3.334,0.000,12.802,0.000,0.000,34.282
13661,4.190,0.000,3.334,0.000,12.802,0.000,0.000,34.293
13688,4.190,0.000,3.334,0.000,12.802,0.000,0.000,34.277
13715,4.190,0.000,3.334,0.000,12.802,0.000,0.000,34.272
13742,4.189,0.000,3.334,0.000,12.802,0.000,0.000,34.240
13769,4.189,0.000,3.334,0.000,12.802,0.000,0.000,34.269
13796,4.189,0.000,3.334,0.000,12.802,0.000,0.000,34.292
13823,4.189,0.000,3.334,0.000,12.802,0.000,0.000,34.249
13850,4.189,0.000,3.334,0.000,12.802,0.000,0.000,34.226
13877,4.189,0.000,3.334,0.000,12.802,0.000,0.000,34.253
13904,4.188,0.000,3.334,0.000,12.802,0.000,0.000,34.220
13931,4.188,0.000,3.334,0.000,12.802,0.000,0.000,34.233
13958,4.188,0.000,3.334,0.000,12.802,0.000,0.000,34.218
13985,4.188,0.000,3.334,0.000,12.802,0.000,0.000,34.282
14012,4.188,0.000,3.334,0.000,12.802,0.000,0.000,34.240
14039,4.188,0.000,3.334,0.000,12.802,0.000,0.000,34.280
14066,4.188,0.000,3.334,0.000,12.802,0.000,0.000,34.247
14093,4.188,0.000,3.334,0.000,12.802,0.000,0.000,34.215
14120,4.187,0.000,3.334,0.000,12.802,0.000,0.000,34.256
14147,4.187,0.000,3.334,0.000,12.802,0.000,0.000,34.278
14174,4.187,0.000,3.334,0.000,12.802,0.000,0.000,34.247
14201,4.187,0.000,3.334,0.000,12.802,0.000,0.000,34.251
14228,4.187,0.000,3.334,0.000,12.802,0.000,0.000,34.279
14255,4.187,0.000,3.334,0.000,12.802,0.000,0.000,34.245
14282,4.187,0.000,3.334,0.000,12.802,0.000,0.000,34.209
14309,4.187,0.000,3.334,0.000,12.802,0.000,0.000,34.268
14336,4.187,0.000,3.334,0.000,12.802,0.000,0.000,34.274
14363,4.187,0.000,3.334,0.000,12.802,0.000,0.000,34.246
14390,4.186,0.000,3.334,0.000,12.802,0.000,0.000,34.288
14417,4.186,0.000,3.334,0.000,12.802,0.000,0.000,34.257
14444,4.186,0.000,3.334,0.000,12.802,0.000,0.000,34.296
14471,4.186,0.000,3.334,0.000,12.802,0.000,0.000,34.232
14498,4.186,0.000,3.334,0.000,12.802,0.000,0.000,34.270
14525,4.186,0.000,3.334,0.000,12.802,0.000,0.000,34.227
14552,4.186,0.000,3.334,0.000,12.802,0.000,0.000,34.250
14579,4.186,0.000,3.334,0.000,12.802,0.000,0.000,34.265
14606,4.186,0.000,3.334,0.000,12.802,0.000,0.000,34.279
14633,4.186,0.000,3.334,0.000,12.802,0.000,0.000,34.247
14660,4.186,0.000,3.334,0.000,12.802,0.000,0.000,34.244
14687,4.185,0.000,3.334,0.000,12.802,0.000,0.000,34.264
14714,4.185,0.000,3.334,0.000,12.802,0.000,0.000,34.275
14741,4.185,0.000,3.334,0.000,12.802,0.000,0.000,34.262
14768,4.185,0.000,3.334,0.000,12.802,0.000,0.000,34.270
14795,4.185,0.000,3.334,0.000,12.802,0.000,0.000,34.313
14822,4.185,0.000,3.334,0.000,12.802,0.000,0.000,34.261
14849,4.185,0.000,3.334,0.000,12.802,0.000,0.000,34.278
14876,4.185,0.000,3.334,0.000,12.802,0.000,0.000,34.263
14903,4.185,0.000,3.334,0.000,12.802,0.000,0.000,34.244
14930,4.185,0.000,3.334,0.000,12.802,0.000,0.000,34.237
14957,4.185,0.000,3.334,0.000,12.802,0.000,0.000,34.251
14984,4.185,0.000,3.334,0.000,12.802,0.000,0.000,34.264
15011,4.185,0.000,3.334,0.000,12.802,0.000,0.000,34.229
15038,4.185,0.000,3.334,0.000,12.802,0.000,0.000,34.233
15065,4.184,0.000,3.334,0.000,12.802,0.000,0.000,34.229
15092,4.184,0.000,3.334,0.000,12.802,0.000,0.000,34.245
15119,4.184,0.000,3.334,0.000,12.802,0.000,0.000,34.299
15146,4.184,0.000,3.334,0.000,12.802,0.000,0.000,34.232
15173,4.184,0.000,3.334,0.000,12.802,0.000,0.000,34.294
15200,4.184,0.000,3.334,0.000,12.802,0.000,0.000,34.276
15227,4.184,0.000,3.334,0.000,12.802,0.000,0.000,34.270
15254,4.184,0.000,3.334,0.000,12.802,0.000,0.000,34.221
15281,4.184,0.000,3.334,0.000,12.802,0.000,0.000,34.189
15308,4.184,0.000,3.334,0.000,12.802,0.000,0.000,34.242
15335,4.184,0.000,3.334,0.000,12.802,0.000,0.000,34.252
15362,4.184,0.000,3.334,0.000,12.802,0.000,0.000,34.233
15389,4.184,0.000,3.334,0.000,12.802,0.000,0.000,34.239
15416,4.184,0.000,3.334,0.000,12.802,0.000,0.000,34.277
15443,4.184,0.000,3.334,0.000,12.802,0.000,0.000,34.204
15470,4.184,0.000,3.334,0.000,12.802,0.000,0.000,34.231
15497,4.184,0.000,3.334,0.000,12.802,0.000,0.000,34.199
15524,4.183,0.000,3.334,0.000,12.802,0.000,0.000,34.245
15551,4.183,0.000,3.334,0.000,12.802,0.000,0.000,34.230
15578,4.183,0.000,3.334,0.000,12.802,0.000,0.000,34.215
15605,4.183,0.000,3.334,0.000,12.802,0.000,0.000,34.239
15632,4.183,0.000,3.334,0.000,12.802,0.000,0.000,34.262
15659,4.183,0.000,3.334,0.000,12.802,0.000,0.000,34.267
15686,4.183,0.000,3.334,0.000,12.802,0.000,0.000,34.321
15713,4.183,0.000,3.334,0.000,12.802,0.000,0.000,34.221
15740,4.183,0.000,3.334,0.000,12.802,0.000,0.000,34.246
15767,4.183,0.000,3.334,0.000,12.802,0.000,0.000,34.222
15794,4.183,0.000,3.334,0.000,12.802,0.000,0.000,34.210
15821,4.183,0.000,3.334,0.000,12.802,0.000,0.000,34.201
15848,4.183,0.000,3.334,0.000,12.802,0.000,0.000,34.276
15875,4.183,0.000,3.334,0.000,12.802,0.000,0.000,34.221
15902,4.183,0.000,3.334,0.000,12.802,0.000,0.000,34.228
15929,4.183,0.000,3.334,0.000,12.802,0.000,0.000,34.208
15956,4.183,0.000,3.334,0.000,12.802,0.000,0.000,34.199
15983,4.183,0.000,3.334,0.000,12.802,0.000,0.000,34.249
16010,4.183,0.000,3.334,0.000,12.802,0.000,0.000,34.227
16037,4.183,0.000,3.334,0.000,12.802,0.000,0.000,34.210
16064,4.183,0.000,3.334,0.000,12.802,0.000,0.000,34.278
16091,4.183,0.000,3.334,0.000,12.802,0.000,0.000,34.237
16118,4.182,0.000,3.334,0.000,12.802,0.000,0.000,34.214
16145,4.182,0.000,3.334,0.000,12.802,0.000,0.000,34.244
16172,4.182,0.000,3.334,0.000,12.802,0.000,0.000,34.254
16199,4.182,0.000,3.334,0.000,12.802,0.000,0.000,34.244
16226,4.182,0.000,3.334,0.000,12.802,0.000,0.000,34.240
16253,4.182,0.000,3.334,0.000,12.802,0.000,0.000,34.239
16280,4.182,0.000,3.334,0.000,12.802,0.000,0.000,34.205
16307,4.182,0.000,3.334,0.000,12.802,0.000,0.000,34.204
16334,4.182,0.000,3.334,0.000,12.802,0.000,0.000,34.248
16361,4.182,0.000,3.334,0.000,12.802,0.000,0.000,34.188
16388,4.182,0.000,3.334,0.000,12.802,0.000,0.000,34.220
16415,4.182,0.000,3.334,0.000,12.802,0.000,0.000,34.261
16442,4.182,0.000,3.334,0.000,12.802,0.000,0.000,34.246
16469,4.182,0.000,3.334,0.000,12.802,0.000,0.000,34.239
16496,4.182,0.000,3.334,0.000,12.802,0.000,0.000,34.243
16523,4.182,0.000,3.334,0.000,12.802,0.000,0.000,34.207
16550,4.182,0.000,3.334,0.000,12.802,0.000,0.000,34.245
16577,4.182,0.000,3.334,0.000,12.802,0.000,0.000,34.277
16604,4.182,0.000,3.334,0.000,12.802,0.000,0.000,34.226
16631,4.182,0.000,3.334,0.000,12.802,0.000,0.000,34.183
16658,4.182,0.000,3.334,0.000,12.802,0.000,0.000,34.212
16685,4.182,0.000,3.334,0.000,12.802,0.000,0.000,34.239
16712,4.182,0.000,3.334,0.000,12.802,0.000,0.000,34.204
16739,4.182,0.000,3.334,0.000,12.802,0.000,0.000,34.206
16765,4.001,-3.350,3.334,0.007,12.802,0.030,-0.002,34.256
16792,3.968,-3.350,3.334,0.033,12.802,0.130,-0.001,34.357
16819,3.950,-3.350,3.334,0.058,12.802,0.229,-0.001,34.521
16846,3.937,-3.350,3.334,0.083,12.802,0.328,0.000,34.728
16873,3.926,-3.350,3.334,0.108,12.802,0.427,0.000,34.932
16900,3.917,-3.350,3.334,0.133,12.802,0.526,0.000,35.119
16927,3.908,-3.350,3.334,0.158,12.802,0.624,0.000,35.312
16954,3.900,-3.350,3.334,0.183,12.802,0.722,0.000,35.531
16981,3.893,-3.350,3.334,0.208,12.802,0.820,0.000,35.659
17008,3.885,-3.350,3.334,0.234,12.802,0.918,0.000,35.831
17035,3.877,-3.350,3.334,0.259,12.802,1.015,0.000,35.961
17062,3.869,-3.350,3.334,0.284,12.802,1.113,0.000,36.156
17089,3.861,-3.350,3.334,0.309,12.802,1.210,0.000,36.291
17116,3.852,-3.350,3.334,0.334,12.802,1.307,0.000,36.443
17143,3.844,-3.350,3.334,0.359,12.802,1.403,0.000,36.542
17170,3.835,-3.350,3.334,0.384,12.802,1.500,0.000,36.660
17197,3.826,-3.350,3.334,0.409,12.802,1.596,0.000,36.808
17224,3.818,-3.350,3.334,0.435,12.802,1.692,0.000,36.924
17251,3.808,-3.350,3.334,0.460,12.802,1.788,0.000,36.993
17278,3.799,-3.350,3.334,0.485,12.802,1.884,-0.001,37.118
17305,3.790,-3.350,3.334,0.510,12.802,1.979,0.000,37.159
17332,3.781,-3.350,3.334,0.535,12.802,2.074,0.000,37.256
17359,3.772,-3.350,3.334,0.560,12.802,2.169,0.000,37.336
17386,3.764,-3.350,3.334,0.585,12.802,2.264,0.000,37.450
17413,3.755,-3.350,3.334,0.610,12.802,2.358,0.000,37.477
17440,3.746,-3.350,3.334,0.636,12.802,2.452,0.000,37.548
17467,3.738,-3.350,3.334,0.661,12.802,2.546,0.000,37.623
17494,3.731,-3.350,3.334,0.686,12.802,2.640,0.000,37.703
17521,3.723,-3.350,3.334,0.711,12.802,2.734,0.000,37.750
17548,3.715,-3.350,3.334,0.736,12.802,2.827,0.000,37.860
17575,3.707,-3.350,3.334,0.761,12.802,2.920,0.000,37.840
17602,3.700,-3.350,3.334,0.786,12.802,3.014,0.000,37.913
17629,3.693,-3.350,3.334,0.811,12.802,3.106,0.000,37.977
17656,3.685,-3.350,3.334,0.837,12.802,3.199,0.000,38.001
17683,3.678,-3.350,3.334,0.862,12.802,3.292,0.000,38.025
17710,3.671,-3.350,3.334,0.887,12.802,3.384,0.000,38.078
17737,3.664,-3.350,3.334,0.912,12.802,3.476,0.000,38.156
17764,3.657,-3.350,3.334,0.937,12.802,3.568,0.000,38.203
17791,3.649,-3.350,3.334,0.962,12.802,3.660,0.000,38.240
17818,3.642,-3.350,3.334,0.987,12.802,3.751,0.000,38.305
17845,3.635,-3.350,3.334,1.012,12.802,3.843,0.000,38.315
17872,3.628,-3.350,3.334,1.038,12.802,3.934,0.000,38.404
17899,3.620,-3.350,3.334,1.063,12.802,4.025,0.000,38.415
17926,3.613,-3.350,3.334,1.088,12.802,4.116,0.000,38.478
17953,3.605,-3.350,3.334,1.113,12.802,4.207,0.000,38.512
17980,3.597,-3.350,3.334,1.138,12.802,4.297,0.000,38.570
18007,3.590,-3.350,3.334,1.163,12.802,4.387,0.000,38.565
18034,3.582,-3.350,3.334,1.188,12.802,4.478,0.000,38.632
18061,3.574,-3.350,3.334,1.214,12.802,4.567,0.000,38.713
18088,3.566,-3.350,3.334,1.239,12.802,4.657,0.000,38.762
18115,3.558,-3.350,3.334,1.264,12.802,4.747,0.000,38.783
18142,3.550,-3.350,3.334,1.289,12.802,4.836,0.000,38.812
18169,3.542,-3.350,3.334,1.314,12.802,4.925,0.000,38.860
18196,3.534,-3.350,3.334,1.339,12.802,5.014,0.000,38.874
18223,3.527,-3.350,3.334,1.364,12.802,5.103,0.000,38.965
18250,3.519,-3.350,3.334,1.389,12.802,5.191,0.000,38.968
18277,3.511,-3.350,3.334,1.415,12.802,5.280,0.000,39.046
18304,3.503,-3.350,3.334,1.440,12.802,5.368,0.000,39.038
18331,3.496,-3.350,3.334,1.465,12.802,5.456,0.000,39.106
18358,3.488,-3.350,3.334,1.490,12.802,5.543,0.000,39.091
18385,3.481,-3.350,3.334,1.515,12.802,5.631,0.000,39.203
18412,3.474,-3.350,3.334,1.540,12.802,5.718,0.000,39.169
18439,3.466,-3.350,3.334,1.565,12.802,5.805,0.000,39.187
18466,3.459,-3.350,3.334,1.590,12.802,5.892,0.000,39.246
18493,3.452,-3.350,3.334,1.616,12.802,5.979,0.000,39.286
18520,3.446,-3.350,3.334,1.641,12.802,6.066,0.000,39.304
18547,3.439,-3.350,3.334,1.666,12.802,6.152,0.000,39.361
18574,3.432,-3.350,3.334,1.691,12.802,6.239,0.000,39.356
18601,3.426,-3.350,3.334,1.716,12.802,6.325,0.000,39.420
18628,3.420,-3.350,3.334,1.741,12.802,6.411,0.000,39.450
18655,3.413,-3.350,3.334,1.766,12.802,6.497,0.000,39.412
18682,3.407,-3.350,3.334,1.791,12.802,6.582,0.000,39.497
18709,3.401,-3.350,3.334,1.817,12.802,6.668,0.000,39.562
18736,3.395,-3.350,3.334,1.842,12.802,6.753,0.000,39.556
18763,3.389,-3.350,3.334,1.867,12.802,6.839,0.000,39.656
18790,3.383,-3.350,3.334,1.892,12.802,6.924,0.000,39.674
18817,3.377,-3.350,3.334,1.917,12.802,7.009,0.000,39.721
18844,3.372,-3.350,3.334,1.942,12.802,7.093,0.000,39.709
18871,3.366,-3.350,3.334,1.967,12.802,7.178,0.000,39.742
18898,3.360,-3.350,3.334,1.992,12.802,7.263,0.000,39.796
18925,3.355,-3.350,3.334,2.018,12.802,7.347,0.000,39.798
18952,3.350,-3.350,3.334,2.043,12.802,7.431,0.000,39.842
18979,3.344,-3.350,3.334,2.068,12.802,7.515,0.000,39.966
19006,3.339,-3.350,3.334,2.093,12.802,7.599,0.000,39.913
19033,3.333,-3.350,3.334,2.118,12.802,7.683,0.000,40.039
19060,3.328,-3.350,3.334,2.143,12.802,7.767,0.000,40.040
19087,3.323,-3.350,3.334,2.168,12.802,7.850,0.000,40.047
19114,3.317,-3.350,3.334,2.193,12.802,7.934,0.000,40.143
19141,3.311,-3.350,3.334,2.219,12.802,8.017,0.000,40.169
19168,3.306,-3.350,3.334,2.244,12.802,8.100,0.000,40.205
19195,3.300,-3.350,3.334,2.269,12.802,8.183,0.000,40.218
19222,3.294,-3.350,3.334,2.294,12.802,8.266,0.000,40.285
19249,3.288,-3.350,3.334,2.319,12.802,8.349,0.000,40.311
19276,3.281,-3.350,3.334,2.344,12.802,8.431,0.000,40.342
19303,3.275,-3.350,3.334,2.369,12.802,8.514,0.000,40.361
19330,3.268,-3.350,3.334,2.394,12.802,8.596,0.000,40.464
19357,3.261,-3.350,3.334,2.420,12.802,8.678,0.000,40.426
19384,3.254,-3.350,3.334,2.445,12.802,8.760,0.000,40.347
19411,3.247,-3.350,3.334,2.470,12.802,8.841,0.000,40.457
19438,3.240,-3.350,3.334,2.495,12.802,8.923,0.000,40.527
19465,3.232,-3.350,3.334,2.520,12.802,9.004,0.000,40.576
19492,3.224,-3.350,3.334,2.545,12.802,9.085,0.000,40.568
19519,3.216,-3.350,3.334,2.570,12.802,9.166,-0.001,40.606
19546,3.207,-3.350,3.334,2.595,12.802,9.247,0.000,40.661
19573,3.199,-3.350,3.334,2.621,12.802,9.327,0.000,40.644
19600,3.190,-3.350,3.334,2.646,12.802,9.408,0.000,40.715
19627,3.181,-3.350,3.334,2.671,12.802,9.488,0.000,40.702
19654,3.172,-3.350,3.334,2.696,12.802,9.567,0.000,40.874
19681,3.162,-3.350,3.334,2.721,12.802,9.647,0.000,40.858
19708,3.153,-3.350,3.334,2.746,12.802,9.726,0.000,40.907
19735,3.142,-3.350,3.334,2.771,12.802,9.805,0.000,40.967
19762,3.132,-3.350,3.334,2.796,12.802,9.884,-0.001,41.000
19789,3.121,-3.350,3.334,2.822,12.802,9.963,0.000,41.035
19816,3.110,-3.350,3.334,2.847,12.802,10.041,-0.001,41.141
19843,3.098,-3.350,3.334,2.872,12.802,10.119,0.000,41.137
19870,3.085,-3.350,3.334,2.897,12.802,10.197,-0.001,41.200
19897,3.072,-3.350,3.334,2.922,12.802,10.274,0.000,41.328
19924,3.057,-3.350,3.334,2.947,12.802,10.351,-0.001,41.418
19951,3.042,-3.350,3.334,2.972,12.802,10.428,-0.001,41.453
19978,3.025,-3.350,3.334,2.997,12.802,10.504,-0.001,41.598
20005,3.006,-3.350,3.334,3.023,12.802,10.580,-0.001,41.680
20032,2.985,-3.350,3.334,3.048,12.802,10.655,-0.001,41.909
20059,2.961,-3.350,3.334,3.073,12.802,10.730,-0.001,41.988
20086,2.933,-3.350,3.334,3.098,12.802,10.804,-0.001,42.265
20113,2.901,-3.350,3.334,3.123,12.802,10.877,-0.001,42.433
20140,2.864,-3.350,3.334,3.148,12.802,10.949,-0.002,42.700
20167,2.819,-3.350,3.334,3.173,12.802,11.021,-0.002,42.890
20194,2.764,-3.350,3.334,3.199,12.802,11.091,-0.002,43.287
20221,2.693,-3.350,3.334,3.224,12.802,11.160,-0.003,43.655
20248,2.599,-3.350,3.334,3.249,12.802,11.226,-0.004,44.032
20274,2.961,0.000,3.334,3.268,12.802,11.276,0.014,44.504
20301,3.047,0.000,3.334,3.268,12.802,11.276,0.001,44.403
20328,3.071,0.000,3.334,3.268,12.802,11.276,0.001,43.962
20355,3.083,0.000,3.334,3.268,12.802,11.276,0.000,43.531
20382,3.090,0.000,3.334,3.268,12.802,11.276,0.000,43.067
20409,3.094,0.000,3.334,3.268,12.802,11.276,0.000,42.616
20436,3.097,0.000,3.334,3.268,12.802,11.276,0.000,42.172
20463,3.100,0.000,3.334,3.268,12.802,11.276,0.000,41.768
20490,3.102,0.000,3.334,3.268,12.802,11.276,0.000,41.367
20517,3.104,0.000,3.334,3.268,12.802,11.276,0.000,41.019
20544,3.106,0.000,3.334,3.268,12.802,11.276,0.000,40.598
20571,3.107,0.000,3.334,3.268,12.802,11.276,0.000,40.343
20598,3.109,0.000,3.334,3.268,12.802,11.276,0.000,40.041
20625,3.110,0.000,3.334,3.268,12.802,11.276,0.000,39.717
20652,3.111,0.000,3.334,3.268,12.802,11.276,0.000,39.387
20679,3.112,0.000,3.334,3.268,12.802,11.276,0.000,39.088
20706,3.113,0.000,3.334,3.268,12.802,11.276,0.000,38.832
20733,3.114,0.000,3.334,3.268,12.802,11.276,0.000,38.632
20760,3.115,0.000,3.334,3.268,12.802,11.276,0.000,38.410
20787,3.116,0.000,3.334,3.268,12.802,11.276,0.000,38.169
20814,3.116,0.000,3.334,3.268,12.802,11.276,0.000,37.903
20841,3.117,0.000,3.334,3.268,12.802,11.276,0.000,37.732
20868,3.118,0.000,3.334,3.268,12.802,11.276,0.000,37.538
20895,3.118,0.000,3.334,3.268,12.802,11.276,0.000,37.386
20922,3.119,0.000,3.334,3.268,12.802,11.276,0.000,37.227
20949,3.120,0.000,3.334,3.268,12.802,11.276,0.000,37.060
20976,3.120,0.000,3.334,3.268,12.802,11.276,0.000,36.890
21003,3.121,0.000,3.334,3.268,12.802,11.276,0.000,36.785
21030,3.121,0.000,3.334,3.268,12.802,11.276,0.000,36.664
21057,3.122,0.000,3.334,3.268,12.802,11.276,0.000,36.513
21084,3.122,0.000,3.334,3.268,12.802,11.276,0.000,36.391
21111,3.123,0.000,3.334,3.268,12.802,11.276,0.000,36.296
21138,3.123,0.000,3.334,3.268,12.802,11.276,0.000,36.181
21165,3.124,0.000,3.334,3.268,12.802,11.276,0.000,36.081
21192,3.124,0.000,3.334,3.268,12.802,11.276,0.000,35.939
21219,3.125,0.000,3.334,3.268,12.802,11.276,0.000,35.870
21246,3.125,0.000,3.334,3.268,12.802,11.276,0.000,35.750
21273,3.125,0.000,3.334,3.268,12.802,11.276,0.000,35.724
21300,3.126,0.000,3.334,3.268,12.802,11.276,0.000,35.637
21327,3.126,0.000,3.334,3.268,12.802,11.276,0.000,35.574
21354,3.127,0.000,3.334,3.268,12.802,11.276,0.000,35.475
21381,3.127,0.000,3.334,3.268,12.802,11.276,0.000,35.437
21408,3.127,0.000,3.334,3.268,12.802,11.276,0.000,35.360
21435,3.128,0.000,3.334,3.268,12.802,11.276,0.000,35.293
21462,3.128,0.000,3.334,3.268,12.802,11.276,0.000,35.237
21489,3.128,0.000,3.334,3.268,12.802,11.276,0.000,35.192
21516,3.129,0.000,3.334,3.268,12.802,11.276,0.000,35.188
21543,3.129,0.000,3.334,3.268,12.802,11.276,0.000,35.091
21570,3.129,0.000,3.334,3.268,12.802,11.276,0.000,35.070
21597,3.130,0.000,3.334,3.268,12.802,11.276,0.000,35.003
21624,3.130,0.000,3.334,3.268,12.802,11.276,0.000,34.939
21651,3.130,0.000,3.334,3.268,12.802,11.276,0.000,34.957
21678,3.130,0.000,3.334,3.268,12.802,11.276,0.000,34.912
21705,3.131,0.000,3.334,3.268,12.802,11.276,0.000,34.858
21732,3.131,0.000,3.334,3.268,12.802,11.276,0.000,34.804
21759,3.132,0.000,3.334,3.268,12.802,11.276,0.000,34.766
21786,3.132,0.000,3.334,3.268,12.802,11.276,0.000,34.794
21813,3.132,0.000,3.334,3.268,12.802,11.276,0.000,34.735
21840,3.132,0.000,3.334,3.268,12.802,11.276,0.000,34.673
21867,3.132,0.000,3.334,3.268,12.802,11.276,0.000,34.709
21894,3.133,0.000,3.334,3.268,12.802,11.276,0.000,34.632
21921,3.133,0.000,3.334,3.268,12.802,11.276,0.000,34.630
21948,3.133,0.000,3.334,3.268,12.802,11.276,0.000,34.646
21975,3.133,0.000,3.334,3.268,12.802,11.276,0.000,34.604
22002,3.134,0.000,3.334,3.268,12.802,11.276,0.000,34.590
22029,3.134,0.000,3.334,3.268,12.802,11.276,0.000,34.564
22056,3.134,0.000,3.334,3.268,12.802,11.276,0.000,34.561
22083,3.134,0.000,3.334,3.268,12.802,11.276,0.000,34.525
22110,3.135,0.000,3.334,3.268,12.802,11.276,0.000,34.530
22137,3.135,0.000,3.334,3.268,12.802,11.276,0.000,34.508
22164,3.135,0.000,3.334,3.268,12.802,11.276,0.000,34.467
22191,3.135,0.000,3.334,3.268,12.802,11.276,0.000,34.512
22218,3.135,0.000,3.334,3.268,12.802,11.276,0.000,34.457
22245,3.136,0.000,3.334,3.268,12.802,11.276,0.000,34.521
22272,3.136,0.000,3.334,3.268,12.802,11.276,0.000,34.436
22299,3.136,0.000,3.334,3.268,12.802,11.276,0.000,34.427
22326,3.136,0.000,3.334,3.268,12.802,11.276,0.000,34.444
22353,3.137,0.000,3.334,3.268,12.802,11.276,0.000,34.406
22380,3.137,0.000,3.334,3.268,12.802,11.276,0.000,34.371
22407,3.137,0.000,3.334,3.268,12.802,11.276,0.000,34.416
22434,3.137,0.000,3.334,3.268,12.802,11.276,0.000,34.430
22461,3.137,0.000,3.334,3.268,12.802,11.276,0.000,34.404
22488,3.137,0.000,3.334,3.268,12.802,11.276,0.000,34.372
22515,3.138,0.000,3.334,3.268,12.802,11.276,0.000,34.353
22542,3.138,0.000,3.334,3.268,12.802,11.276,0.000,34.362
22569,3.138,0.000,3.334,3.268,12.802,11.276,0.000,34.354
22596,3.138,0.000,3.334,3.268,12.802,11.276,0.000,34.344
22623,3.138,0.000,3.334,3.268,12.802,11.276,0.000,34.347
22650,3.139,0.000,3.334,3.268,12.802,11.276,0.000,34.358
22677,3.139,0.000,3.334,3.268,12.802,11.276,0.000,34.338
22704,3.139,0.000,3.334,3.268,12.802,11.276,0.000,34.283
22731,3.139,0.000,3.334,3.268,12.802,11.276,0.000,34.317
22758,3.139,0.000,3.334,3.268,12.802,11.276,0.000,34.347
22785,3.139,0.000,3.334,3.268,12.802,11.276,0.000,34.320
22812,3.140,0.000,3.334,3.268,12.802,11.276,0.000,34.317
22839,3.140,0.000,3.334,3.268,12.802,11.276,0.000,34.311
22866,3.140,0.000,3.334,3.268,12.802,11.276,0.000,34.312
22893,3.140,0.000,3.334,3.268,12.802,11.276,0.000,34.307
22920,3.140,0.000,3.334,3.268,12.802,11.276,0.000,34.276
22947,3.140,0.000,3.334,3.268,12.802,11.276,0.000,34.293
22974,3.141,0.000,3.334,3.268,12.802,11.276,0.000,34.289
23001,3.141,0.000,3.334,3.268,12.802,11.276,0.000,34.294
23028,3.141,0.000,3.334,3.268,12.802,11.276,0.000,34.299
23055,3.141,0.000,3.334,3.268,12.802,11.276,0.000,34.276
23082,3.141,0.000,3.334,3.268,12.802,11.276,0.000,34.277
23109,3.141,0.000,3.334,3.268,12.802,11.276,0.000,34.254
23136,3.142,0.000,3.334,3.268,12.802,11.276,0.000,34.304
23163,3.142,0.000,3.334,3.268,12.802,11.276,0.000,34.273
23190,3.142,0.000,3.334,3.268,12.802,11.276,0.000,34.281
23217,3.142,0.000,3.334,3.268,12.802,11.276,0.000,34.275
23244,3.142,0.000,3.334,3.268,12.802,11.276,0.000,34.271
23271,3.142,0.000,3.334,3.268,12.802,11.276,0.000,34.263
23298,3.142,0.000,3.334,3.268,12.802,11.276,0.000,34.246
23325,3.143,0.000,3.334,3.268,12.802,11.276,0.000,34.293
23352,3.143,0.000,3.334,3.268,12.802,11.276,0.000,34.293
23379,3.143,0.000,3.334,3.268,12.802,11.276,0.000,34.285
23406,3.143,0.000,3.334,3.268,12.802,11.276,0.000,34.266
23433,3.143,0.000,3.334,3.268,12.802,11.276,0.000,34.299
23460,3.143,0.000,3.334,3.268,12.802,11.276,0.000,34.273
23487,3.143,0.000,3.334,3.268,12.802,11.276,0.000,34.243
23514,3.144,0.000,3.334,3.268,12.802,11.276,0.000,34.279
23541,3.144,0.000,3.334,3.268,12.802,11.276,0.000,34.241
23568,3.144,0.000,3.334,3.268,12.802,11.276,0.000,34.262
23595,3.144,0.000,3.334,3.268,12.802,11.276,0.000,34.282
23622,3.144,0.000,3.334,3.268,12.802,11.276,0.000,34.251
23649,3.144,0.000,3.334,3.268,12.802,11.276,0.000,34.256
23676,3.144,0.000,3.334,3.268,12.802,11.276,0.000,34.254
23703,3.145,0.000,3.334,3.268,12.802,11.276,0.000,34.261
23730,3.145,0.000,3.334,3.268,12.802,11.276,0.000,34.204
23757,3.145,0.000,3.334,3.268,12.802,11.276,0.000,34.218
23784,3.145,0.000,3.334,3.268,12.802,11.276,0.000,34.173
23811,3.145,0.000,3.334,3.268,12.802,11.276,0.000,34.204
23838,3.145,0.000,3.334,3.268,12.802,11.276,0.000,34.238
23865,3.145,0.000,3.334,3.268,12.802,11.276,0.000,34.222
23869,3.145,0.000,3.334,3.268,12.802,11.276,0.000,34.268