File: data/T35/1C/6.csv
time_s,voltage_v,current_a,chargecapacity_ah,dischargecapacity_ah,charge_energy_wh,discharge_energy_wh,voltagedot_v_per_s,temp_degc
1,2.912,0.000,0.000,0.000,0.000,0.000,0.000,34.421
29,2.912,0.000,0.000,0.000,0.000,0.000,0.000,34.462
57,2.912,0.000,0.000,0.000,0.000,0.000,0.000,34.488
85,2.912,0.000,0.000,0.000,0.000,0.000,0.000,34.441
113,2.912,0.000,0.000,0.000,0.000,0.000,0.000,34.436
141,2.912,0.000,0.000,0.000,0.000,0.000,0.000,34.453
169,2.912,0.000,0.000,0.000,0.000,0.000,0.000,34.448
197,2.913,0.000,0.000,0.000,0.000,0.000,0.000,34.474
225,2.913,0.000,0.000,0.000,0.000,0.000,0.000,34.429
253,2.913,0.000,0.000,0.000,0.000,0.000,0.000,34.450
281,2.913,0.000,0.000,0.000,0.000,0.000,0.000,34.435
309,2.913,0.000,0.000,0.000,0.000,0.000,0.000,34.429
337,2.913,0.000,0.000,0.000,0.000,0.000,0.000,34.474
365,2.913,0.000,0.000,0.000,0.000,0.000,0.000,34.440
393,2.913,0.000,0.000,0.000,0.000,0.000,0.000,34.481
421,2.913,0.000,0.000,0.000,0.000,0.000,0.000,34.467
449,2.913,0.000,0.000,0.000,0.000,0.000,0.000,34.495
477,2.913,0.000,0.000,0.000,0.000,0.000,0.000,34.487
505,2.913,0.000,0.000,0.000,0.000,0.000,0.000,34.469
533,2.913,0.000,0.000,0.000,0.000,0.000,0.000,34.507
561,2.913,0.000,0.000,0.000,0.000,0.000,0.000,34.489
589,2.913,0.000,0.000,0.000,0.000,0.000,0.000,34.461
617,2.913,0.000,0.000,0.000,0.000,0.000,0.000,34.459
645,2.913,0.000,0.000,0.000,0.000,0.000,0.000,34.426
673,2.914,0.000,0.000,0.000,0.000,0.000,0.000,34.432
701,2.914,0.000,0.000,0.000,0.000,0.000,0.000,34.467
729,2.914,0.000,0.000,0.000,0.000,0.000,0.000,34.457
757,2.914,0.000,0.000,0.000,0.000,0.000,0.000,34.453
785,2.914,0.000,0.000,0.000,0.000,0.000,0.000,34.489
813,2.914,0.000,0.000,0.000,0.000,0.000,0.000,34.453
841,2.914,0.000,0.000,0.000,0.000,0.000,0.000,34.447
869,2.914,0.000,0.000,0.000,0.000,0.000,0.000,34.428
897,2.914,0.000,0.000,0.000,0.000,0.000,0.000,34.443
925,2.914,0.000,0.000,0.000,0.000,0.000,0.000,34.441
953,2.914,0.000,0.000,0.000,0.000,0.000,0.000,34.486
981,2.914,0.000,0.000,0.000,0.000,0.000,0.000,34.436
1009,2.914,0.000,0.000,0.000,0.000,0.000,0.000,34.494
1037,2.914,0.000,0.000,0.000,0.000,0.000,0.000,34.464
1065,2.915,0.000,0.000,0.000,0.000,0.000,0.000,34.452
1093,2.914,0.000,0.000,0.000,0.000,0.000,0.000,34.433
1121,2.915,0.000,0.000,0.000,0.000,0.000,0.000,34.483
1149,2.915,0.000,0.000,0.000,0.000,0.000,0.000,34.492
1177,2.915,0.000,0.000,0.000,0.000,0.000,0.000,34.453
1205,2.915,0.000,0.000,0.000,0.000,0.000,0.000,34.467
1233,2.915,0.000,0.000,0.000,0.000,0.000,0.000,34.468
1261,2.915,0.000,0.000,0.000,0.000,0.000,0.000,34.448
1289,2.915,0.000,0.000,0.000,0.000,0.000,0.000,34.457
1317,2.915,0.000,0.000,0.000,0.000,0.000,0.000,34.442
1345,2.915,0.000,0.000,0.000,0.000,0.000,0.000,34.451
1373,2.915,0.000,0.000,0.000,0.000,0.000,0.000,34.444
1401,2.915,0.000,0.000,0.000,0.000,0.000,0.000,34.468
1429,2.915,0.000,0.000,0.000,0.000,0.000,0.000,34.435
1457,2.915,0.000,0.000,0.000,0.000,0.000,0.000,34.454
1485,2.916,0.000,0.000,0.000,0.000,0.000,0.000,34.482
1513,2.915,0.000,0.000,0.000,0.000,0.000,0.000,34.451
1541,2.916,0.000,0.000,0.000,0.000,0.000,0.000,34.425
1569,2.916,0.000,0.000,0.000,0.000,0.000,0.000,34.409
1597,2.916,0.000,0.000,0.000,0.000,0.000,0.000,34.445
1625,2.916,0.000,0.000,0.000,0.000,0.000,0.000,34.467
1653,2.916,0.000,0.000,0.000,0.000,0.000,0.000,34.419
1681,2.916,0.000,0.000,0.000,0.000,0.000,0.000,34.458
1709,2.916,0.000,0.000,0.000,0.000,0.000,0.000,34.445
1737,2.916,0.000,0.000,0.000,0.000,0.000,0.000,34.445
1765,2.916,0.000,0.000,0.000,0.000,0.000,0.000,34.394
1793,2.916,0.000,0.000,0.000,0.000,0.000,0.000,34.492
1821,2.916,0.000,0.000,0.000,0.000,0.000,0.000,34.432
1849,2.916,0.000,0.000,0.000,0.000,0.000,0.000,34.447
1877,2.916,0.000,0.000,0.000,0.000,0.000,0.000,34.454
1905,2.916,0.000,0.000,0.000,0.000,0.000,0.000,34.449
1933,2.916,0.000,0.000,0.000,0.000,0.000,0.000,34.452
1961,2.917,0.000,0.000,0.000,0.000,0.000,0.000,34.426
1989,2.917,0.000,0.000,0.000,0.000,0.000,0.000,34.456
2017,2.917,0.000,0.000,0.000,0.000,0.000,0.000,34.417
2045,2.917,0.000,0.000,0.000,0.000,0.000,0.000,34.406
2073,2.917,0.000,0.000,0.000,0.000,0.000,0.000,34.458
2101,2.917,0.000,0.000,0.000,0.000,0.000,0.000,34.437
2129,2.917,0.000,0.000,0.000,0.000,0.000,0.000,34.458
2157,2.917,0.000,0.000,0.000,0.000,0.000,0.000,34.460
2185,2.917,0.000,0.000,0.000,0.000,0.000,0.000,34.412
2213,2.917,0.000,0.000,0.000,0.000,0.000,0.000,34.471
2241,2.917,0.000,0.000,0.000,0.000,0.000,0.000,34.416
2269,2.917,0.000,0.000,0.000,0.000,0.000,0.000,34.459
2297,2.917,0.000,0.000,0.000,0.000,0.000,0.000,34.419
2325,2.917,0.000,0.000,0.000,0.000,0.000,0.000,34.466
2353,2.917,0.000,0.000,0.000,0.000,0.000,0.000,34.448
2381,2.917,0.000,0.000,0.000,0.000,0.000,0.000,34.454
2409,2.918,0.000,0.000,0.000,0.000,0.000,0.000,34.468
2437,2.918,0.000,0.000,0.000,0.000,0.000,0.000,34.471
2465,2.918,0.000,0.000,0.000,0.000,0.000,0.000,34.402
2493,2.918,0.000,0.000,0.000,0.000,0.000,0.000,34.419
2521,2.918,0.000,0.000,0.000,0.000,0.000,0.000,34.467
2549,2.918,0.000,0.000,0.000,0.000,0.000,0.000,34.425
2577,2.918,0.000,0.000,0.000,0.000,0.000,0.000,34.436
2605,2.918,0.000,0.000,0.000,0.000,0.000,0.000,34.436
2633,2.918,0.000,0.000,0.000,0.000,0.000,0.000,34.480
2661,2.918,0.000,0.000,0.000,0.000,0.000,0.000,34.433
2689,2.918,0.000,0.000,0.000,0.000,0.000,0.000,34.434
2717,2.918,0.000,0.000,0.000,0.000,0.000,0.000,34.462
2745,2.918,0.000,0.000,0.000,0.000,0.000,0.000,34.447
2773,2.918,0.000,0.000,0.000,0.000,0.000,0.000,34.442
2801,2.918,0.000,0.000,0.000,0.000,0.000,0.000,34.482
2829,2.918,0.000,0.000,0.000,0.000,0.000,0.000,34.424
2857,2.918,0.000,0.000,0.000,0.000,0.000,0.000,34.467
2885,2.919,0.000,0.000,0.000,0.000,0.000,0.000,34.442
2913,2.919,0.000,0.000,0.000,0.000,0.000,0.000,34.412
2941,2.919,0.000,0.000,0.000,0.000,0.000,0.000,34.485
2969,2.919,0.000,0.000,0.000,0.000,0.000,0.000,34.447
2997,2.919,0.000,0.000,0.000,0.000,0.000,0.000,34.457
3025,2.919,0.000,0.000,0.000,0.000,0.000,0.000,34.456
3053,2.919,0.000,0.000,0.000,0.000,0.000,0.000,34.460
3081,2.919,0.000,0.000,0.000,0.000,0.000,0.000,34.450
3109,2.919,0.000,0.000,0.000,0.000,0.000,0.000,34.414
3137,2.919,0.000,0.000,0.000,0.000,0.000,0.000,34.465
3165,2.919,0.000,0.000,0.000,0.000,0.000,0.000,34.411
3193,2.919,0.000,0.000,0.000,0.000,0.000,0.000,34.479
3221,2.919,0.000,0.000,0.000,0.000,0.000,0.000,34.445
3249,2.919,0.000,0.000,0.000,0.000,0.000,0.000,34.438
3277,2.919,0.000,0.000,0.000,0.000,0.000,0.000,34.458
3305,2.919,0.000,0.000,0.000,0.000,0.000,0.000,34.470
3333,2.919,0.000,0.000,0.000,0.000,0.000,0.000,34.454
3361,2.920,0.000,0.000,0.000,0.000,0.000,0.000,34.447
3389,2.920,0.000,0.000,0.000,0.000,0.000,0.000,34.487
3417,2.920,0.000,0.000,0.000,0.000,0.000,0.000,34.472
3445,2.920,0.000,0.000,0.000,0.000,0.000,0.000,34.434
3473,2.920,0.000,0.000,0.000,0.000,0.000,0.000,34.397
3501,2.920,0.000,0.000,0.000,0.000,0.000,0.000,34.437
3529,2.920,0.000,0.000,0.000,0.000,0.000,0.000,34.464
3557,2.920,0.000,0.000,0.000,0.000,0.000,0.000,34.500
3585,2.920,0.000,0.000,0.000,0.000,0.000,0.000,34.457
3612,3.168,1.625,0.005,0.000,0.017,0.000,0.004,34.444
3640,3.250,1.625,0.018,0.000,0.058,0.000,0.002,34.384
3668,3.306,1.625,0.031,0.000,0.099,0.000,0.002,34.408
3696,3.351,1.625,0.043,0.000,0.141,0.000,0.002,34.412
3724,3.387,1.625,0.056,0.000,0.184,0.000,0.001,34.407
3752,3.418,1.625,0.069,0.000,0.227,0.000,0.001,34.452
3780,3.444,1.625,0.081,0.000,0.270,0.000,0.001,34.458
3808,3.468,1.625,0.094,0.000,0.314,0.000,0.001,34.524
3836,3.489,1.625,0.107,0.000,0.358,0.000,0.001,34.563
3864,3.507,1.625,0.119,0.000,0.402,0.000,0.001,34.587
3892,3.521,1.625,0.132,0.000,0.446,0.000,0.000,34.643
3920,3.528,1.625,0.144,0.000,0.491,0.000,0.000,34.678
3948,3.532,1.625,0.157,0.000,0.536,0.000,0.000,34.753
3976,3.534,1.625,0.170,0.000,0.580,0.000,0.000,34.831
4004,3.536,1.625,0.182,0.000,0.625,0.000,0.000,34.969
4032,3.539,1.625,0.195,0.000,0.670,0.000,0.000,35.042
4060,3.541,1.625,0.208,0.000,0.714,0.000,0.000,35.114
4088,3.544,1.625,0.220,0.000,0.759,0.000,0.000,35.163
4116,3.547,1.625,0.233,0.000,0.804,0.000,0.000,35.300
4144,3.550,1.625,0.246,0.000,0.849,0.000,0.000,35.400
4172,3.552,1.625,0.258,0.000,0.894,0.000,0.000,35.457
4200,3.555,1.625,0.271,0.000,0.939,0.000,0.000,35.484
4228,3.558,1.625,0.284,0.000,0.984,0.000,0.000,35.608
4256,3.561,1.625,0.296,0.000,1.029,0.000,0.000,35.650
4284,3.564,1.625,0.309,0.000,1.074,0.000,0.000,35.733
4312,3.567,1.625,0.321,0.000,1.119,0.000,0.000,35.781
4340,3.570,1.625,0.334,0.000,1.164,0.000,0.000,35.836
4368,3.573,1.625,0.347,0.000,1.209,0.000,0.000,35.883
4396,3.576,1.625,0.359,0.000,1.254,0.000,0.000,35.929
4424,3.579,1.625,0.372,0.000,1.299,0.000,0.000,36.008
4452,3.582,1.625,0.385,0.000,1.345,0.000,0.000,36.030
4480,3.585,1.625,0.397,0.000,1.390,0.000,0.000,36.130
4508,3.588,1.625,0.410,0.000,1.435,0.000,0.000,36.138
4536,3.591,1.625,0.423,0.000,1.481,0.000,0.000,36.165
4564,3.594,1.625,0.435,0.000,1.526,0.000,0.000,36.215
4592,3.597,1.625,0.448,0.000,1.572,0.000,0.000,36.251
4620,3.600,1.625,0.461,0.000,1.617,0.000,0.000,36.268
4648,3.604,1.625,0.473,0.000,1.663,0.000,0.000,36.289
4676,3.607,1.625,0.486,0.000,1.708,0.000,0.000,36.328
4704,3.610,1.625,0.498,0.000,1.754,0.000,0.000,36.353
4732,3.614,1.625,0.511,0.000,1.799,0.000,0.000,36.377
4760,3.617,1.625,0.524,0.000,1.845,0.000,0.000,36.387
4788,3.621,1.625,0.536,0.000,1.891,0.000,0.000,36.357
4816,3.625,1.625,0.549,0.000,1.937,0.000,0.000,36.355
4844,3.628,1.625,0.562,0.000,1.983,0.000,0.000,36.399
4872,3.632,1.625,0.574,0.000,2.028,0.000,0.000,36.381
4900,3.635,1.625,0.587,0.000,2.074,0.000,0.000,36.399
4928,3.639,1.625,0.600,0.000,2.120,0.000,0.000,36.375
4956,3.642,1.625,0.612,0.000,2.166,0.000,0.000,36.371
4984,3.645,1.625,0.625,0.000,2.212,0.000,0.000,36.365
5012,3.648,1.625,0.637,0.000,2.259,0.000,0.000,36.418
5040,3.652,1.625,0.650,0.000,2.305,0.000,0.000,36.346
5068,3.655,1.625,0.663,0.000,2.351,0.000,0.000,36.341
5096,3.657,1.625,0.675,0.000,2.397,0.000,0.000,36.318
5124,3.660,1.625,0.688,0.000,2.443,0.000,0.000,36.374
5152,3.663,1.625,0.701,0.000,2.490,0.000,0.000,36.310
5180,3.665,1.625,0.713,0.000,2.536,0.000,0.000,36.318
5208,3.668,1.625,0.726,0.000,2.582,0.000,0.000,36.359
5236,3.671,1.625,0.739,0.000,2.629,0.000,0.000,36.319
5264,3.673,1.625,0.751,0.000,2.675,0.000,0.000,36.339
5292,3.676,1.625,0.764,0.000,2.722,0.000,0.000,36.312
5320,3.678,1.625,0.777,0.000,2.768,0.000,0.000,36.304
5348,3.681,1.625,0.789,0.000,2.815,0.000,0.000,36.324
5376,3.684,1.625,0.802,0.000,2.861,0.000,0.000,36.318
5404,3.686,1.625,0.814,0.000,2.908,0.000,0.000,36.344
5432,3.689,1.625,0.827,0.000,2.954,0.000,0.000,36.309
5460,3.691,1.625,0.840,0.000,3.001,0.000,0.000,36.369
5488,3.694,1.625,0.852,0.000,3.048,0.000,0.000,36.336
5516,3.697,1.625,0.865,0.000,3.094,0.000,0.000,36.304
5544,3.699,1.625,0.878,0.000,3.141,0.000,0.000,36.357
5572,3.702,1.625,0.890,0.000,3.188,0.000,0.000,36.398
5600,3.705,1.625,0.903,0.000,3.235,0.000,0.000,36.368
5628,3.707,1.625,0.916,0.000,3.282,0.000,0.000,36.430
5656,3.710,1.625,0.928,0.000,3.328,0.000,0.000,36.409
5684,3.713,1.625,0.941,0.000,3.375,0.000,0.000,36.453
5712,3.716,1.625,0.954,0.000,3.422,0.000,0.000,36.462
5740,3.718,1.625,0.966,0.000,3.469,0.000,0.000,36.415
5768,3.721,1.625,0.979,0.000,3.516,0.000,0.000,36.453
5796,3.724,1.625,0.991,0.000,3.563,0.000,0.000,36.458
5824,3.726,1.625,1.004,0.000,3.610,0.000,0.000,36.483
5852,3.729,1.625,1.017,0.000,3.658,0.000,0.000,36.521
5880,3.731,1.625,1.029,0.000,3.705,0.000,0.000,36.494
5908,3.734,1.625,1.042,0.000,3.752,0.000,0.000,36.559
5936,3.737,1.625,1.055,0.000,3.799,0.000,0.000,36.509
5964,3.739,1.625,1.067,0.000,3.846,0.000,0.000,36.532
5992,3.742,1.625,1.080,0.000,3.894,0.000,0.000,36.569
6020,3.744,1.625,1.093,0.000,3.941,0.000,0.000,36.515
6048,3.747,1.625,1.105,0.000,3.988,0.000,0.000,36.616
6076,3.750,1.625,1.118,0.000,4.036,0.000,0.000,36.597
6104,3.752,1.625,1.130,0.000,4.083,0.000,0.000,36.633
6132,3.755,1.625,1.143,0.000,4.131,0.000,0.000,36.586
6160,3.757,1.625,1.156,0.000,4.178,0.000,0.000,36.643
6188,3.760,1.625,1.168,0.000,4.226,0.000,0.000,36.663
6216,3.762,1.625,1.181,0.000,4.273,0.000,0.000,36.687
6244,3.765,1.625,1.194,0.000,4.321,0.000,0.000,36.697
6272,3.767,1.625,1.206,0.000,4.368,0.000,0.000,36.732
6300,3.769,1.625,1.219,0.000,4.416,0.000,0.000,36.748
6328,3.772,1.625,1.232,0.000,4.464,0.000,0.000,36.748
6356,3.774,1.625,1.244,0.000,4.511,0.000,0.000,36.726
6384,3.776,1.625,1.257,0.000,4.559,0.000,0.000,36.783
6412,3.778,1.625,1.270,0.000,4.607,0.000,0.000,36.774
6440,3.781,1.625,1.282,0.000,4.655,0.000,0.000,36.815
6468,3.783,1.625,1.295,0.000,4.702,0.000,0.000,36.799
6496,3.785,1.625,1.307,0.000,4.750,0.000,0.000,36.828
6524,3.788,1.625,1.320,0.000,4.798,0.000,0.000,36.838
6552,3.790,1.625,1.333,0.000,4.846,0.000,0.000,36.822
6580,3.792,1.625,1.345,0.000,4.894,0.000,0.000,36.905
6608,3.794,1.625,1.358,0.000,4.942,0.000,0.000,36.844
6636,3.797,1.625,1.371,0.000,4.990,0.000,0.000,36.877
6664,3.799,1.625,1.383,0.000,5.038,0.000,0.000,36.920
6692,3.802,1.625,1.396,0.000,5.086,0.000,0.000,36.932
6720,3.804,1.625,1.409,0.000,5.134,0.000,0.000,36.904
6748,3.807,1.625,1.421,0.000,5.182,0.000,0.000,36.923
6776,3.809,1.625,1.434,0.000,5.230,0.000,0.000,36.913
6804,3.811,1.625,1.447,0.000,5.278,0.000,0.000,36.926
6832,3.814,1.625,1.459,0.000,5.327,0.000,0.000,36.953
6860,3.817,1.625,1.472,0.000,5.375,0.000,0.000,36.981
6888,3.819,1.625,1.484,0.000,5.423,0.000,0.000,36.959
6916,3.822,1.625,1.497,0.000,5.471,0.000,0.000,37.012
6944,3.824,1.625,1.510,0.000,5.520,0.000,0.000,36.977
6972,3.827,1.625,1.522,0.000,5.568,0.000,0.000,36.984
7000,3.830,1.625,1.535,0.000,5.616,0.000,0.000,37.004
7028,3.833,1.625,1.548,0.000,5.665,0.000,0.000,37.001
7056,3.835,1.625,1.560,0.000,5.713,0.000,0.000,37.046
7084,3.838,1.625,1.573,0.000,5.762,0.000,0.000,37.048
7112,3.841,1.625,1.586,0.000,5.810,0.000,0.000,37.065
7140,3.844,1.625,1.598,0.000,5.859,0.000,0.000,37.071
7168,3.847,1.625,1.611,0.000,5.908,0.000,0.000,37.033
7196,3.850,1.625,1.624,0.000,5.956,0.000,0.000,37.073
7224,3.853,1.625,1.636,0.000,6.005,0.000,0.000,37.043
7252,3.856,1.625,1.649,0.000,6.054,0.000,0.000,37.055
7280,3.859,1.625,1.661,0.000,6.102,0.000,0.000,37.055
7308,3.862,1.625,1.674,0.000,6.151,0.000,0.000,37.041
7336,3.865,1.625,1.687,0.000,6.200,0.000,0.000,37.107
7364,3.868,1.625,1.699,0.000,6.249,0.000,0.000,37.091
7392,3.871,1.625,1.712,0.000,6.298,0.000,0.000,37.088
7420,3.875,1.625,1.725,0.000,6.347,0.000,0.000,37.080
7448,3.878,1.625,1.737,0.000,6.396,0.000,0.000,37.091
7476,3.881,1.625,1.750,0.000,6.445,0.000,0.000,37.118
7504,3.885,1.625,1.763,0.000,6.494,0.000,0.000,37.079
7532,3.888,1.625,1.775,0.000,6.543,0.000,0.000,37.113
7560,3.892,1.625,1.788,0.000,6.592,0.000,0.000,37.175
7588,3.895,1.625,1.800,0.000,6.641,0.000,0.000,37.136
7616,3.898,1.625,1.813,0.000,6.691,0.000,0.000,37.147
7644,3.902,1.625,1.826,0.000,6.740,0.000,0.000,37.135
7672,3.905,1.625,1.838,0.000,6.789,0.000,0.000,37.172
7700,3.909,1.625,1.851,0.000,6.839,0.000,0.000,37.140
7728,3.913,1.625,1.864,0.000,6.888,0.000,0.000,37.193
7756,3.916,1.625,1.876,0.000,6.938,0.000,0.000,37.132
7784,3.920,1.625,1.889,0.000,6.987,0.000,0.000,37.214
7812,3.923,1.625,1.902,0.000,7.037,0.000,0.000,37.180
7840,3.927,1.625,1.914,0.000,7.086,0.000,0.000,37.119
7868,3.930,1.625,1.927,0.000,7.136,0.000,0.000,37.191
7896,3.934,1.625,1.940,0.000,7.186,0.000,0.000,37.189
7924,3.938,1.625,1.952,0.000,7.235,0.000,0.000,37.182
7952,3.941,1.625,1.965,0.000,7.285,0.000,0.000,37.153
7980,3.945,1.625,1.977,0.000,7.335,0.000,0.000,37.118
8008,3.948,1.625,1.990,0.000,7.385,0.000,0.000,37.149
8036,3.952,1.625,2.003,0.000,7.435,0.000,0.000,37.189
8064,3.956,1.625,2.015,0.000,7.485,0.000,0.000,37.158
8092,3.959,1.625,2.028,0.000,7.535,0.000,0.000,37.161
8120,3.963,1.625,2.041,0.000,7.585,0.000,0.000,37.190
8148,3.967,1.625,2.053,0.000,7.635,0.000,0.000,37.197
8176,3.970,1.625,2.066,0.000,7.685,0.000,0.000,37.162
8204,3.974,1.625,2.079,0.000,7.736,0.000,0.000,37.200
8232,3.978,1.625,2.091,0.000,7.786,0.000,0.000,37.173
8260,3.981,1.625,2.104,0.000,7.836,0.000,0.000,37.160
8288,3.985,1.625,2.117,0.000,7.886,0.000,0.000,37.143
8316,3.989,1.625,2.129,0.000,7.937,0.000,0.000,37.186
8344,3.992,1.625,2.142,0.000,7.987,0.000,0.000,37.213
8372,3.996,1.625,2.154,0.000,8.038,0.000,0.000,37.174
8400,4.000,1.625,2.167,0.000,8.088,0.000,0.000,37.164
8428,4.003,1.625,2.180,0.000,8.139,0.000,0.000,37.181
8456,4.007,1.625,2.192,0.000,8.190,0.000,0.000,37.199
8484,4.010,1.625,2.205,0.000,8.240,0.000,0.000,37.164
8512,4.014,1.625,2.218,0.000,8.291,0.000,0.000,37.177
8540,4.018,1.625,2.230,0.000,8.342,0.000,0.000,37.190
8568,4.021,1.625,2.243,0.000,8.393,0.000,0.000,37.186
8596,4.025,1.625,2.256,0.000,8.443,0.000,0.000,37.201
8624,4.028,1.625,2.268,0.000,8.494,0.000,0.000,37.193
8652,4.032,1.625,2.281,0.000,8.545,0.000,0.000,37.153
8680,4.035,1.625,2.294,0.000,8.596,0.000,0.000,37.142
8708,4.039,1.625,2.306,0.000,8.647,0.000,0.000,37.193
8736,4.043,1.625,2.319,0.000,8.698,0.000,0.000,37.184
8764,4.046,1.625,2.331,0.000,8.749,0.000,0.000,37.199
8792,4.050,1.625,2.344,0.000,8.801,0.000,0.000,37.164
8820,4.053,1.625,2.357,0.000,8.852,0.000,0.000,37.128
8848,4.057,1.625,2.369,0.000,8.903,0.000,0.000,37.143
8876,4.060,1.625,2.382,0.000,8.954,0.000,0.000,37.184
8904,4.064,1.625,2.395,0.000,9.006,0.000,0.000,37.173
8932,4.068,1.625,2.407,0.000,9.057,0.000,0.000,37.146
8960,4.071,1.625,2.420,0.000,9.109,0.000,0.000,37.189
8988,4.075,1.625,2.433,0.000,9.160,0.000,0.000,37.153
9016,4.079,1.625,2.445,0.000,9.212,0.000,0.000,37.139
9044,4.082,1.625,2.458,0.000,9.263,0.000,0.000,37.141
9072,4.086,1.625,2.470,0.000,9.315,0.000,0.000,37.129
9100,4.092,1.625,2.483,0.000,9.367,0.000,0.000,37.196
9128,4.095,1.625,2.496,0.000,9.418,0.000,0.000,37.188
9156,4.099,1.625,2.508,0.000,9.470,0.000,0.000,37.172
9184,4.103,1.625,2.521,0.000,9.522,0.000,0.000,37.191
9212,4.107,1.625,2.534,0.000,9.574,0.000,0.000,37.197
9240,4.111,1.625,2.546,0.000,9.626,0.000,0.000,37.176
9268,4.115,1.625,2.559,0.000,9.678,0.000,0.000,37.215
9296,4.119,1.625,2.572,0.000,9.730,0.000,0.000,37.150
9324,4.123,1.625,2.584,0.000,9.782,0.000,0.000,37.132
9352,4.127,1.625,2.597,0.000,9.834,0.000,0.000,37.234
9380,4.131,1.625,2.610,0.000,9.886,0.000,0.000,37.203
9408,4.136,1.625,2.622,0.000,9.938,0.000,0.000,37.210
9436,4.140,1.625,2.635,0.000,9.991,0.000,0.000,37.229
9464,4.145,1.625,2.647,0.000,10.043,0.000,0.000,37.248
9492,4.149,1.625,2.660,0.000,10.096,0.000,0.000,37.193
9520,4.154,1.625,2.673,0.000,10.148,0.000,0.000,37.190
9548,4.159,1.625,2.685,0.000,10.201,0.000,0.000,37.192
9576,4.163,1.625,2.698,0.000,10.253,0.000,0.000,37.222
9604,4.168,1.625,2.711,0.000,10.306,0.000,0.000,37.283
9632,4.173,1.625,2.723,0.000,10.359,0.000,0.000,37.213
9660,4.178,1.625,2.736,0.000,10.411,0.000,0.000,37.227
9688,4.183,1.625,2.749,0.000,10.464,0.000,0.000,37.253
9716,4.188,1.625,2.761,0.000,10.517,0.000,0.000,37.280
9744,4.193,1.625,2.774,0.000,10.570,0.000,0.000,37.254
9772,4.198,1.625,2.787,0.000,10.623,0.000,0.000,37.277
9800,4.200,1.589,2.799,0.000,10.675,0.000,0.000,37.307
9828,4.200,1.537,2.811,0.000,10.726,0.000,0.000,37.313
9856,4.200,1.492,2.823,0.000,10.775,0.000,0.000,37.279
9884,4.200,1.450,2.834,0.000,10.824,0.000,0.000,37.337
9912,4.200,1.411,2.845,0.000,10.870,0.000,0.000,37.341
9940,4.200,1.375,2.856,0.000,10.916,0.000,0.000,37.275
9968,4.200,1.340,2.867,0.000,10.960,0.000,0.000,37.262
9996,4.200,1.305,2.877,0.000,11.003,0.000,0.000,37.265
10024,4.200,1.273,2.887,0.000,11.045,0.000,0.000,37.213
10052,4.200,1.241,2.897,0.000,11.086,0.000,0.000,37.193
10080,4.200,1.211,2.906,0.000,11.126,0.000,0.000,37.120
10108,4.200,1.181,2.916,0.000,11.165,0.000,0.000,37.122
10136,4.200,1.154,2.925,0.000,11.204,0.000,0.000,37.117
10164,4.200,1.126,2.934,0.000,11.241,0.000,0.000,37.046
10192,4.200,1.100,2.942,0.000,11.277,0.000,0.000,37.033
10220,4.200,1.075,2.951,0.000,11.313,0.000,0.000,36.964
10248,4.200,1.050,2.959,0.000,11.347,0.000,0.000,36.931
10276,4.200,1.027,2.967,0.000,11.381,0.000,0.000,36.938
10304,4.200,1.005,2.975,0.000,11.415,0.000,0.000,36.888
10332,4.200,0.983,2.983,0.000,11.447,0.000,0.000,36.793
10360,4.200,0.962,2.990,0.000,11.479,0.000,0.000,36.770
10388,4.200,0.942,2.998,0.000,11.510,0.000,0.000,36.733
10416,4.200,0.923,3.005,0.000,11.540,0.000,0.000,36.720
10444,4.200,0.904,3.012,0.000,11.570,0.000,0.000,36.644
10472,4.200,0.886,3.019,0.000,11.599,0.000,0.000,36.613
10500,4.200,0.868,3.026,0.000,11.628,0.000,0.000,36.561
10528,4.200,0.852,3.032,0.000,11.656,0.000,0.000,36.505
10556,4.200,0.835,3.039,0.000,11.684,0.000,0.000,36.443
10584,4.200,0.819,3.045,0.000,11.711,0.000,0.000,36.418
10612,4.200,0.804,3.052,0.000,11.737,0.000,0.000,36.364
10640,4.200,0.789,3.058,0.000,11.763,0.000,0.000,36.347
10668,4.200,0.774,3.064,0.000,11.789,0.000,0.000,36.283
10696,4.200,0.760,3.070,0.000,11.814,0.000,0.000,36.284
10724,4.200,0.746,3.076,0.000,11.838,0.000,0.000,36.212
10752,4.200,0.733,3.082,0.000,11.862,0.000,0.000,36.199
10780,4.200,0.720,3.087,0.000,11.886,0.000,0.000,36.139
10808,4.200,0.706,3.093,0.000,11.909,0.000,0.000,36.083
10836,4.200,0.694,3.098,0.000,11.932,0.000,0.000,36.083
10864,4.200,0.682,3.104,0.000,11.955,0.000,0.000,36.028
10892,4.200,0.669,3.109,0.000,11.977,0.000,0.000,35.981
10920,4.200,0.657,3.114,0.000,11.998,0.000,0.000,36.024
10948,4.200,0.645,3.119,0.000,12.020,0.000,0.000,35.931
10976,4.200,0.634,3.124,0.000,12.041,0.000,0.000,35.882
11004,4.200,0.622,3.129,0.000,12.061,0.000,0.000,35.818
11032,4.200,0.611,3.134,0.000,12.081,0.000,0.000,35.830
11060,4.200,0.600,3.138,0.000,12.101,0.000,0.000,35.824
11088,4.200,0.589,3.143,0.000,12.120,0.000,0.000,35.800
11116,4.200,0.578,3.148,0.000,12.139,0.000,0.000,35.725
11144,4.200,0.567,3.152,0.000,12.158,0.000,0.000,35.745
11172,4.200,0.557,3.156,0.000,12.176,0.000,0.000,35.697
11200,4.200,0.546,3.161,0.000,12.194,0.000,0.000,35.711
11228,4.200,0.535,3.165,0.000,12.212,0.000,0.000,35.652
11256,4.200,0.525,3.169,0.000,12.229,0.000,0.000,35.585
11284,4.200,0.515,3.173,0.000,12.246,0.000,0.000,35.568
11312,4.200,0.505,3.177,0.000,12.263,0.000,0.000,35.557
11340,4.200,0.495,3.181,0.000,12.279,0.000,0.000,35.533
11368,4.200,0.486,3.185,0.000,12.295,0.000,0.000,35.489
11396,4.200,0.475,3.188,0.000,12.311,0.000,0.000,35.476
11424,4.200,0.466,3.192,0.000,12.327,0.000,0.000,35.475
11452,4.200,0.457,3.196,0.000,12.342,0.000,0.000,35.406
11480,4.200,0.448,3.199,0.000,12.356,0.000,0.000,35.396
11508,4.200,0.438,3.203,0.000,12.371,0.000,0.000,35.396
11536,4.200,0.429,3.206,0.000,12.385,0.000,0.000,35.366
11564,4.200,0.420,3.209,0.000,12.399,0.000,0.000,35.360
11592,4.200,0.411,3.213,0.000,12.412,0.000,0.000,35.320
11620,4.200,0.403,3.216,0.000,12.426,0.000,0.000,35.279
11648,4.200,0.394,3.219,0.000,12.439,0.000,0.000,35.274
11676,4.200,0.385,3.222,0.000,12.451,0.000,0.000,35.256
11704,4.200,0.377,3.225,0.000,12.464,0.000,0.000,35.242
11732,4.200,0.369,3.228,0.000,12.476,0.000,0.000,35.235
11760,4.200,0.361,3.231,0.000,12.488,0.000,0.000,35.199
11788,4.200,0.353,3.233,0.000,12.500,0.000,0.000,35.209
11816,4.200,0.345,3.236,0.000,12.511,0.000,0.000,35.194
11844,4.200,0.338,3.239,0.000,12.522,0.000,0.000,35.156
11872,4.200,0.330,3.241,0.000,12.533,0.000,0.000,35.108
11900,4.200,0.322,3.244,0.000,12.544,0.000,0.000,35.135
11928,4.200,0.315,3.246,0.000,12.554,0.000,0.000,35.118
11956,4.200,0.308,3.249,0.000,12.564,0.000,0.000,35.050
11984,4.200,0.300,3.251,0.000,12.574,0.000,0.000,35.044
12012,4.200,0.294,3.253,0.000,12.584,0.000,0.000,35.059
12040,4.200,0.286,3.256,0.000,12.593,0.000,0.000,35.025
12068,4.200,0.280,3.258,0.000,12.603,0.000,0.000,35.047
12096,4.200,0.274,3.260,0.000,12.612,0.000,0.000,35.024
12124,4.200,0.267,3.262,0.000,12.621,0.000,0.000,34.987
12152,4.200,0.261,3.264,0.000,12.629,0.000,0.000,34.969
12180,4.200,0.254,3.266,0.000,12.638,0.000,0.000,34.977
12208,4.200,0.248,3.268,0.000,12.646,0.000,0.000,34.947
12236,4.200,0.243,3.270,0.000,12.654,0.000,0.000,34.953
12264,4.200,0.236,3.272,0.000,12.662,0.000,0.000,34.927
12292,4.200,0.231,3.274,0.000,12.669,0.000,0.000,34.903
12320,4.200,0.225,3.275,0.000,12.677,0.000,0.000,34.917
12348,4.200,0.220,3.277,0.000,12.684,0.000,0.000,34.878
12376,4.200,0.214,3.279,0.000,12.691,0.000,0.000,34.879
12404,4.200,0.209,3.281,0.000,12.698,0.000,0.000,34.860
12432,4.200,0.204,3.282,0.000,12.705,0.000,0.000,34.851
12460,4.200,0.200,3.284,0.000,12.711,0.000,0.000,34.841
12488,4.200,0.195,3.285,0.000,12.718,0.000,0.000,34.852
12516,4.200,0.190,3.287,0.000,12.724,0.000,0.000,34.833
12544,4.200,0.185,3.288,0.000,12.730,0.000,0.000,34.862
12572,4.200,0.180,3.290,0.000,12.736,0.000,0.000,34.784
12600,4.200,0.176,3.291,0.000,12.742,0.000,0.000,34.772
12628,4.200,0.172,3.292,0.000,12.748,0.000,0.000,34.788
12656,4.200,0.167,3.294,0.000,12.753,0.000,0.000,34.762
12684,4.200,0.163,3.295,0.000,12.759,0.000,0.000,34.759
12712,4.200,0.159,3.296,0.000,12.764,0.000,0.000,34.754
12740,4.200,0.155,3.297,0.000,12.769,0.000,0.000,34.749
12768,4.200,0.152,3.299,0.000,12.774,0.000,0.000,34.751
12796,4.200,0.148,3.300,0.000,12.779,0.000,0.000,34.760
12824,4.200,0.144,3.301,0.000,12.784,0.000,0.000,34.750
12852,4.200,0.141,3.302,0.000,12.788,0.000,0.000,34.699
12880,4.200,0.137,3.303,0.000,12.793,0.000,0.000,34.716
12908,4.200,0.134,3.304,0.000,12.797,0.000,0.000,34.668
12936,4.200,0.131,3.305,0.000,12.802,0.000,0.000,34.689
12964,4.200,0.127,3.306,0.000,12.806,0.000,0.000,34.680
12992,4.200,0.125,3.307,0.000,12.810,0.000,0.000,34.706
13020,4.200,0.122,3.308,0.000,12.814,0.000,0.000,34.712
13048,4.200,0.119,3.309,0.000,12.818,0.000,0.000,34.690
13076,4.200,0.116,3.310,0.000,12.822,0.000,0.000,34.719
13104,4.200,0.113,3.311,0.000,12.825,0.000,0.000,34.670
13132,4.200,0.110,3.312,0.000,12.829,0.000,0.000,34.643
13160,4.200,0.108,3.313,0.000,12.833,0.000,0.000,34.675
13188,4.200,0.105,3.313,0.000,12.836,0.000,0.000,34.675
13216,4.200,0.102,3.314,0.000,12.840,0.000,0.000,34.610
13244,4.200,0.100,3.315,0.000,12.843,0.000,0.000,34.662
13272,4.200,0.098,3.316,0.000,12.846,0.000,0.000,34.632
13300,4.200,0.096,3.317,0.000,12.849,0.000,0.000,34.623
13328,4.200,0.093,3.317,0.000,12.852,0.000,0.000,34.622
13356,4.200,0.091,3.318,0.000,12.855,0.000,0.000,34.595
13384,4.200,0.089,3.319,0.000,12.858,0.000,0.000,34.596
13412,4.200,0.087,3.319,0.000,12.861,0.000,0.000,34.594
13440,4.200,0.085,3.320,0.000,12.864,0.000,0.000,34.635
13468,4.200,0.083,3.321,0.000,12.867,0.000,0.000,34.593
13496,4.200,0.081,3.321,0.000,12.869,0.000,0.000,34.592
13524,4.200,0.079,3.322,0.000,12.872,0.000,0.000,34.573
13552,4.200,0.078,3.323,0.000,12.875,0.000,0.000,34.620
13580,4.200,0.076,3.323,0.000,12.877,0.000,0.000,34.606
13608,4.200,0.074,3.324,0.000,12.879,0.000,0.000,34.591
13636,4.200,0.072,3.324,0.000,12.882,0.000,0.000,34.608
13664,4.200,0.071,3.325,0.000,12.884,0.000,0.000,34.523
13692,4.200,0.069,3.325,0.000,12.886,0.000,0.000,34.578
13720,4.200,0.068,3.326,0.000,12.889,0.000,0.000,34.555
13748,4.200,0.066,3.326,0.000,12.891,0.000,0.000,34.579
13775,4.194,0.000,3.327,0.000,12.892,0.000,0.000,34.582
13803,4.193,0.000,3.327,0.000,12.892,0.000,0.000,34.551
13831,4.193,0.000,3.327,0.000,12.892,0.000,0.000,34.604
13859,4.192,0.000,3.327,0.000,12.892,0.000,0.000,34.570
13887,4.192,0.000,3.327,0.000,12.892,0.000,0.000,34.509
13915,4.192,0.000,3.327,0.000,12.892,0.000,0.000,34.527
13943,4.191,0.000,3.327,0.000,12.892,0.000,0.000,34.528
13971,4.191,0.000,3.327,0.000,12.892,0.000,0.000,34.512
13999,4.191,0.000,3.327,0.000,12.892,0.000,0.000,34.513
14027,4.190,0.000,3.327,0.000,12.892,0.000,0.000,34.509
14055,4.190,0.000,3.327,0.000,12.892,0.000,0.000,34.537
14083,4.190,0.000,3.327,0.000,12.892,0.000,0.000,34.491
14111,4.189,0.000,3.327,0.000,12.892,0.000,0.000,34.532
14139,4.189,0.000,3.327,0.000,12.892,0.000,0.000,34.521
14167,4.189,0.000,3.327,0.000,12.892,0.000,0.000,34.515
14195,4.189,0.000,3.327,0.000,12.892,0.000,0.000,34.501
14223,4.189,0.000,3.327,0.000,12.892,0.000,0.000,34.550
14251,4.189,0.000,3.327,0.000,12.892,0.000,0.000,34.499
14279,4.188,0.000,3.327,0.000,12.892,0.000,0.000,34.513
14307,4.188,0.000,3.327,0.000,12.892,0.000,0.000,34.517
14335,4.188,0.000,3.327,0.000,12.892,0.000,0.000,34.511
14363,4.188,0.000,3.327,0.000,12.892,0.000,0.000,34.506
14391,4.188,0.000,3.327,0.000,12.892,0.000,0.000,34.527
14419,4.188,0.000,3.327,0.000,12.892,0.000,0.000,34.593
14447,4.187,0.000,3.327,0.000,12.892,0.000,0.000,34.509
14475,4.187,0.000,3.327,0.000,12.892,0.000,0.000,34.537
14503,4.187,0.000,3.327,0.000,12.892,0.000,0.000,34.515
14531,4.187,0.000,3.327,0.000,12.892,0.000,0.000,34.509
14559,4.187,0.000,3.327,0.000,12.892,0.000,0.000,34.487
14587,4.187,0.000,3.327,0.000,12.892,0.000,0.000,34.533
14615,4.187,0.000,3.327,0.000,12.892,0.000,0.000,34.534
14643,4.186,0.000,3.327,0.000,12.892,0.000,0.000,34.461
14671,4.186,0.000,3.327,0.000,12.892,0.000,0.000,34.509
14699,4.186,0.000,3.327,0.000,12.892,0.000,0.000,34.515
14727,4.186,0.000,3.327,0.000,12.892,0.000,0.000,34.497
14755,4.186,0.000,3.327,0.000,12.892,0.000,0.000,34.514
14783,4.186,0.000,3.327,0.000,12.892,0.000,0.000,34.514
14811,4.186,0.000,3.327,0.000,12.892,0.000,0.000,34.504
14839,4.186,0.000,3.327,0.000,12.892,0.000,0.000,34.488
14867,4.186,0.000,3.327,0.000,12.892,0.000,0.000,34.439
14895,4.186,0.000,3.327,0.000,12.892,0.000,0.000,34.471
14923,4.185,0.000,3.327,0.000,12.892,0.000,0.000,34.501
14951,4.185,0.000,3.327,0.000,12.892,0.000,0.000,34.498
14979,4.185,0.000,3.327,0.000,12.892,0.000,0.000,34.486
15007,4.185,0.000,3.327,0.000,12.892,0.000,0.000,34.472
15035,4.185,0.000,3.327,0.000,12.892,0.000,0.000,34.483
15063,4.185,0.000,3.327,0.000,12.892,0.000,0.000,34.478
15091,4.185,0.000,3.327,0.000,12.892,0.000,0.000,34.486
15119,4.185,0.000,3.327,0.000,12.892,0.000,0.000,34.500
15147,4.185,0.000,3.327,0.000,12.892,0.000,0.000,34.492
15175,4.185,0.000,3.327,0.000,12.892,0.000,0.000,34.516
15203,4.185,0.000,3.327,0.000,12.892,0.000,0.000,34.480
15231,4.185,0.000,3.327,0.000,12.892,0.000,0.000,34.499
15259,4.184,0.000,3.327,0.000,12.892,0.000,0.000,34.468
15287,4.184,0.000,3.327,0.000,12.892,0.000,0.000,34.447
15315,4.184,0.000,3.327,0.000,12.892,0.000,0.000,34.485
15343,4.184,0.000,3.327,0.000,12.892,0.000,0.000,34.473
15371,4.184,0.000,3.327,0.000,12.892,0.000,0.000,34.492
15399,4.184,0.000,3.327,0.000,12.892,0.000,0.000,34.509
15427,4.184,0.000,3.327,0.000,12.892,0.000,0.000,34.515
15455,4.184,0.000,3.327,0.000,12.892,0.000,0.000,34.469
15483,4.184,0.000,3.327,0.000,12.892,0.000,0.000,34.463
15511,4.184,0.000,3.327,0.000,12.892,0.000,0.000,34.515
15539,4.184,0.000,3.327,0.000,12.892,0.000,0.000,34.513
15567,4.184,0.000,3.327,0.000,12.892,0.000,0.000,34.461
15595,4.184,0.000,3.327,0.000,12.892,0.000,0.000,34.455
15623,4.183,0.000,3.327,0.000,12.892,0.000,0.000,34.511
15651,4.183,0.000,3.327,0.000,12.892,0.000,0.000,34.474
15679,4.183,0.000,3.327,0.000,12.892,0.000,0.000,34.543
15707,4.183,0.000,3.327,0.000,12.892,0.000,0.000,34.485
15735,4.183,0.000,3.327,0.000,12.892,0.000,0.000,34.514
15763,4.183,0.000,3.327,0.000,12.892,0.000,0.000,34.444
15791,4.183,0.000,3.327,0.000,12.892,0.000,0.000,34.468
15819,4.183,0.000,3.327,0.000,12.892,0.000,0.000,34.472
15847,4.183,0.000,3.327,0.000,12.892,0.000,0.000,34.457
15875,4.183,0.000,3.327,0.000,12.892,0.000,0.000,34.455
15903,4.183,0.000,3.327,0.000,12.892,0.000,0.000,34.464
15931,4.183,0.000,3.327,0.000,12.892,0.000,0.000,34.483
15959,4.183,0.000,3.327,0.000,12.892,0.000,0.000,34.450
15987,4.183,0.000,3.327,0.000,12.892,0.000,0.000,34.453
16015,4.183,0.000,3.327,0.000,12.892,0.000,0.000,34.439
16043,4.183,0.000,3.327,0.000,12.892,0.000,0.000,34.505
16071,4.183,0.000,3.327,0.000,12.892,0.000,0.000,34.463
16099,4.182,0.000,3.327,0.000,12.892,0.000,0.000,34.461
16127,4.183,0.000,3.327,0.000,12.892,0.000,0.000,34.456
16155,4.182,0.000,3.327,0.000,12.892,0.000,0.000,34.438
16183,4.182,0.000,3.327,0.000,12.892,0.000,0.000,34.502
16211,4.182,0.000,3.327,0.000,12.892,0.000,0.000,34.462
16239,4.182,0.000,3.327,0.000,12.892,0.000,0.000,34.440
16267,4.182,0.000,3.327,0.000,12.892,0.000,0.000,34.478
16295,4.182,0.000,3.327,0.000,12.892,0.000,0.000,34.468
16323,4.182,0.000,3.327,0.000,12.892,0.000,0.000,34.471
16351,4.182,0.000,3.327,0.000,12.892,0.000,0.000,34.463
16379,4.182,0.000,3.327,0.000,12.892,0.000,0.000,34.463
16407,4.182,0.000,3.327,0.000,12.892,0.000,0.000,34.485
16435,4.182,0.000,3.327,0.000,12.892,0.000,0.000,34.461
16463,4.182,0.000,3.327,0.000,12.892,0.000,0.000,34.517
16491,4.182,0.000,3.327,0.000,12.892,0.000,0.000,34.485
16519,4.182,0.000,3.327,0.000,12.892,0.000,0.000,34.471
16547,4.182,0.000,3.327,0.000,12.892,0.000,0.000,34.487
16575,4.182,0.000,3.327,0.000,12.892,0.000,0.000,34.443
16603,4.182,0.000,3.327,0.000,12.892,0.000,0.000,34.437
16631,4.182,0.000,3.327,0.000,12.892,0.000,0.000,34.443
16659,4.181,0.000,3.327,0.000,12.892,0.000,0.000,34.514
16687,4.182,0.000,3.327,0.000,12.892,0.000,0.000,34.507
16715,4.181,0.000,3.327,0.000,12.892,0.000,0.000,34.488
16743,4.182,0.000,3.327,0.000,12.892,0.000,0.000,34.483
16771,4.182,0.000,3.327,0.000,12.892,0.000,0.000,34.466
16799,4.181,0.000,3.327,0.000,12.892,0.000,0.000,34.459
16827,4.181,0.000,3.327,0.000,12.892,0.000,0.000,34.461
16855,4.181,0.000,3.327,0.000,12.892,0.000,0.000,34.492
16883,4.181,0.000,3.327,0.000,12.892,0.000,0.000,34.459
16911,4.181,0.000,3.327,0.000,12.892,0.000,0.000,34.496
16939,4.181,0.000,3.327,0.000,12.892,0.000,0.000,34.503
16967,4.181,0.000,3.327,0.000,12.892,0.000,0.000,34.475
16995,4.181,0.000,3.327,0.000,12.892,0.000,0.000,34.485
17023,4.181,0.000,3.327,0.000,12.892,0.000,0.000,34.479
17051,4.181,0.000,3.327,0.000,12.892,0.000,0.000,34.437
17079,4.181,0.000,3.327,0.000,12.892,0.000,0.000,34.476
17107,4.181,0.000,3.327,0.000,12.892,0.000,0.000,34.477
17135,4.181,0.000,3.327,0.000,12.892,0.000,0.000,34.460
17163,4.181,0.000,3.327,0.000,12.892,0.000,0.000,34.477
17191,4.181,0.000,3.327,0.000,12.892,0.000,0.000,34.493
17219,4.181,0.000,3.327,0.000,12.892,0.000,0.000,34.499
17247,4.181,0.000,3.327,0.000,12.892,0.000,0.000,34.452
17275,4.181,0.000,3.327,0.000,12.892,0.000,0.000,34.472
17303,4.181,0.000,3.327,0.000,12.892,0.000,0.000,34.492
17331,4.181,0.000,3.327,0.000,12.892,0.000,0.000,34.485
17359,4.181,0.000,3.327,0.000,12.892,0.000,0.000,34.473
17386,3.878,-3.350,3.327,0.025,12.892,0.098,-0.001,34.643
17414,3.857,-3.350,3.327,0.051,12.892,0.199,-0.001,34.851
17442,3.843,-3.350,3.327,0.077,12.892,0.299,0.000,35.102
17470,3.831,-3.350,3.327,0.103,12.892,0.399,0.000,35.346
17498,3.822,-3.350,3.327,0.129,12.892,0.499,0.000,35.545
17526,3.813,-3.350,3.327,0.155,12.892,0.598,0.000,35.738
17554,3.804,-3.350,3.327,0.181,12.892,0.697,0.000,35.968
17582,3.796,-3.350,3.327,0.208,12.892,0.796,-0.001,36.225
17610,3.788,-3.350,3.327,0.234,12.892,0.895,0.000,36.414
17638,3.780,-3.350,3.327,0.260,12.892,0.994,0.000,36.614
17666,3.771,-3.350,3.327,0.286,12.892,1.092,0.000,36.760
17694,3.762,-3.350,3.327,0.312,12.892,1.190,0.000,36.906
17722,3.754,-3.350,3.327,0.338,12.892,1.288,0.000,37.114
17750,3.744,-3.350,3.327,0.364,12.892,1.386,0.000,37.207
17778,3.735,-3.350,3.327,0.390,12.892,1.483,0.000,37.361
17806,3.726,-3.350,3.327,0.416,12.892,1.581,0.000,37.522
17834,3.716,-3.350,3.327,0.442,12.892,1.678,0.000,37.614
17862,3.706,-3.350,3.327,0.468,12.892,1.774,0.000,37.731
17890,3.697,-3.350,3.327,0.494,12.892,1.871,0.000,37.898
17918,3.687,-3.350,3.327,0.520,12.892,1.967,0.000,37.962
17946,3.677,-3.350,3.327,0.546,12.892,2.063,0.000,38.073
17974,3.668,-3.350,3.327,0.572,12.892,2.159,0.000,38.151
18002,3.659,-3.350,3.327,0.598,12.892,2.254,0.000,38.195
18030,3.650,-3.350,3.327,0.624,12.892,2.349,0.000,38.308
18058,3.641,-3.350,3.327,0.651,12.892,2.444,0.000,38.424
18086,3.633,-3.350,3.327,0.677,12.892,2.539,0.000,38.503
18114,3.624,-3.350,3.327,0.703,12.892,2.634,0.000,38.545
18142,3.616,-3.350,3.327,0.729,12.892,2.728,0.000,38.602
18170,3.609,-3.350,3.327,0.755,12.892,2.822,0.000,38.638
18198,3.601,-3.350,3.327,0.781,12.892,2.916,0.000,38.781
18226,3.593,-3.350,3.327,0.807,12.892,3.010,0.000,38.769
18254,3.585,-3.350,3.327,0.833,12.892,3.103,0.000,38.903
18282,3.578,-3.350,3.327,0.859,12.892,3.197,0.000,39.004
18310,3.570,-3.350,3.327,0.885,12.892,3.290,0.000,39.063
18338,3.563,-3.350,3.327,0.911,12.892,3.383,0.000,39.123
18366,3.555,-3.350,3.327,0.937,12.892,3.475,0.000,39.144
18394,3.547,-3.350,3.327,0.963,12.892,3.568,0.000,39.236
18422,3.540,-3.350,3.327,0.989,12.892,3.660,0.000,39.272
18450,3.532,-3.350,3.327,1.015,12.892,3.752,0.000,39.377
18478,3.524,-3.350,3.327,1.041,12.892,3.844,0.000,39.407
18506,3.516,-3.350,3.327,1.067,12.892,3.936,0.000,39.483
18534,3.508,-3.350,3.327,1.094,12.892,4.028,0.000,39.564
18562,3.500,-3.350,3.327,1.120,12.892,4.119,0.000,39.628
18590,3.492,-3.350,3.327,1.146,12.892,4.210,0.000,39.641
18618,3.483,-3.350,3.327,1.172,12.892,4.301,0.000,39.707
18646,3.475,-3.350,3.327,1.198,12.892,4.391,0.000,39.792
18674,3.467,-3.350,3.327,1.224,12.892,4.482,0.000,39.815
18702,3.459,-3.350,3.327,1.250,12.892,4.572,0.000,39.858
18730,3.450,-3.350,3.327,1.276,12.892,4.662,0.000,39.935
18758,3.442,-3.350,3.327,1.302,12.892,4.752,0.000,40.076
18786,3.434,-3.350,3.327,1.328,12.892,4.842,0.000,40.078
18814,3.426,-3.350,3.327,1.354,12.892,4.931,0.000,40.059
18842,3.417,-3.350,3.327,1.380,12.892,5.020,0.000,40.226
18870,3.409,-3.350,3.327,1.406,12.892,5.109,0.000,40.245
18898,3.401,-3.350,3.327,1.432,12.892,5.198,0.000,40.244
18926,3.393,-3.350,3.327,1.458,12.892,5.286,0.000,40.269
18954,3.385,-3.350,3.327,1.484,12.892,5.375,0.000,40.319
18982,3.378,-3.350,3.327,1.510,12.892,5.463,0.000,40.407
19010,3.370,-3.350,3.327,1.536,12.892,5.551,0.000,40.417
19038,3.363,-3.350,3.327,1.563,12.892,5.638,0.000,40.570
19066,3.356,-3.350,3.327,1.589,12.892,5.726,0.000,40.528
19094,3.348,-3.350,3.327,1.615,12.892,5.813,0.000,40.563
19122,3.341,-3.350,3.327,1.641,12.892,5.900,0.000,40.615
19150,3.335,-3.350,3.327,1.667,12.892,5.987,0.000,40.680
19178,3.328,-3.350,3.327,1.693,12.892,6.074,0.000,40.765
19206,3.321,-3.350,3.327,1.719,12.892,6.161,0.000,40.773
19234,3.315,-3.350,3.327,1.745,12.892,6.247,0.000,40.863
19262,3.308,-3.350,3.327,1.771,12.892,6.334,0.000,40.834
19290,3.302,-3.350,3.327,1.797,12.892,6.420,0.000,40.934
19318,3.296,-3.350,3.327,1.823,12.892,6.506,0.000,40.960
19346,3.290,-3.350,3.327,1.849,12.892,6.591,0.000,41.017
19374,3.284,-3.350,3.327,1.875,12.892,6.677,0.000,40.964
19402,3.278,-3.350,3.327,1.901,12.892,6.763,0.000,41.072
19430,3.272,-3.350,3.327,1.927,12.892,6.848,0.000,41.203
19458,3.267,-3.350,3.327,1.953,12.892,6.933,0.000,41.221
19486,3.261,-3.350,3.327,1.979,12.892,7.018,0.000,41.278
19514,3.256,-3.350,3.327,2.006,12.892,7.103,0.000,41.350
19542,3.250,-3.350,3.327,2.032,12.892,7.188,0.000,41.352
19570,3.245,-3.350,3.327,2.058,12.892,7.273,0.000,41.403
19598,3.239,-3.350,3.327,2.084,12.892,7.357,0.000,41.472
19626,3.234,-3.350,3.327,2.110,12.892,7.441,0.000,41.460
19654,3.228,-3.350,3.327,2.136,12.892,7.526,0.000,41.510
19682,3.222,-3.350,3.327,2.162,12.892,7.610,0.000,41.595
19710,3.217,-3.350,3.327,2.188,12.892,7.693,0.000,41.561
19738,3.211,-3.350,3.327,2.214,12.892,7.777,0.000,41.734
19766,3.205,-3.350,3.327,2.240,12.892,7.861,0.000,41.805
19794,3.199,-3.350,3.327,2.266,12.892,7.944,0.000,41.794
19822,3.192,-3.350,3.327,2.292,12.892,8.028,0.000,41.746
19850,3.186,-3.350,3.327,2.318,12.892,8.111,0.000,41.816
19878,3.179,-3.350,3.327,2.344,12.892,8.194,0.000,41.843
19906,3.172,-3.350,3.327,2.370,12.892,8.276,0.000,41.890
19934,3.165,-3.350,3.327,2.396,12.892,8.359,0.000,41.975
19962,3.158,-3.350,3.327,2.422,12.892,8.441,0.000,41.979
19990,3.151,-3.350,3.327,2.449,12.892,8.523,0.000,41.932
20018,3.143,-3.350,3.327,2.475,12.892,8.605,0.000,41.973
20046,3.135,-3.350,3.327,2.501,12.892,8.687,0.000,42.133
20074,3.127,-3.350,3.327,2.527,12.892,8.769,0.000,42.192
20102,3.118,-3.350,3.327,2.553,12.892,8.850,0.000,42.153
20130,3.110,-3.350,3.327,2.579,12.892,8.931,0.000,42.204
20158,3.101,-3.350,3.327,2.605,12.892,9.012,0.000,42.267
20186,3.092,-3.350,3.327,2.631,12.892,9.093,0.000,42.296
20214,3.083,-3.350,3.327,2.657,12.892,9.173,0.000,42.359
20242,3.073,-3.350,3.327,2.683,12.892,9.254,0.000,42.396
20270,3.063,-3.350,3.327,2.709,12.892,9.334,0.000,42.453
20298,3.053,-3.350,3.327,2.735,12.892,9.413,0.000,42.556
20326,3.043,-3.350,3.327,2.761,12.892,9.493,0.000,42.507
20354,3.032,-3.350,3.327,2.787,12.892,9.572,0.000,42.489
20382,3.021,-3.350,3.327,2.813,12.892,9.651,-0.001,42.632
20410,3.010,-3.350,3.327,2.839,12.892,9.729,0.000,42.778
20438,2.998,-3.350,3.327,2.865,12.892,9.808,-0.001,42.825
20466,2.986,-3.350,3.327,2.891,12.892,9.886,0.000,42.930
20494,2.972,-3.350,3.327,2.918,12.892,9.963,-0.001,43.039
20522,2.958,-3.350,3.327,2.944,12.892,10.040,0.000,43.154
20550,2.943,-3.350,3.327,2.970,12.892,10.117,-0.001,43.326
20578,2.927,-3.350,3.327,2.996,12.892,10.194,-0.001,43.285
20606,2.908,-3.350,3.327,3.022,12.892,10.270,-0.001,43.483
20634,2.888,-3.350,3.327,3.048,12.892,10.345,-0.001,43.690
20662,2.865,-3.350,3.327,3.074,12.892,10.420,-0.001,43.849
20690,2.839,-3.350,3.327,3.100,12.892,10.495,-0.001,44.143
20718,2.809,-3.350,3.327,3.126,12.892,10.568,-0.001,44.301
20746,2.774,-3.350,3.327,3.152,12.892,10.641,-0.002,44.523
20774,2.730,-3.350,3.327,3.178,12.892,10.713,-0.002,44.818
20802,2.676,-3.350,3.327,3.204,12.892,10.783,-0.002,45.110
20830,2.604,-3.350,3.327,3.230,12.892,10.852,-0.003,45.586
20858,2.505,-3.350,3.327,3.256,12.892,10.919,-0.004,45.982
20885,3.054,0.000,3.327,3.257,12.892,10.921,0.002,46.004
20913,3.082,0.000,3.327,3.257,12.892,10.921,0.001,45.457
20941,3.095,0.000,3.327,3.257,12.892,10.921,0.000,44.949
20969,3.103,0.000,3.327,3.257,12.892,10.921,0.000,44.391
20997,3.107,0.000,3.327,3.257,12.892,10.921,0.000,43.998
21025,3.111,0.000,3.327,3.257,12.892,10.921,0.000,43.543
21053,3.113,0.000,3.327,3.257,12.892,10.921,0.000,43.164
21081,3.115,0.000,3.327,3.257,12.892,10.921,0.000,42.692
21109,3.117,0.000,3.327,3.257,12.892,10.921,0.000,42.195
21137,3.118,0.000,3.327,3.257,12.892,10.921,0.000,41.953
21165,3.120,0.000,3.327,3.257,12.892,10.921,0.000,41.501
21193,3.121,0.000,3.327,3.257,12.892,10.921,0.000,41.182
21221,3.122,0.000,3.327,3.257,12.892,10.921,0.000,40.851
21249,3.123,0.000,3.327,3.257,12.892,10.921,0.000,40.475
21277,3.124,0.000,3.327,3.257,12.892,10.921,0.000,40.216
21305,3.125,0.000,3.327,3.257,12.892,10.921,0.000,39.998
21333,3.126,0.000,3.327,3.257,12.892,10.921,0.000,39.586
21361,3.127,0.000,3.327,3.257,12.892,10.921,0.000,39.374
21389,3.127,0.000,3.327,3.257,12.892,10.921,0.000,39.129
21417,3.128,0.000,3.327,3.257,12.892,10.921,0.000,38.901
21445,3.129,0.000,3.327,3.257,12.892,10.921,0.000,38.685
21473,3.129,0.000,3.327,3.257,12.892,10.921,0.000,38.523
21501,3.130,0.000,3.327,3.257,12.892,10.921,0.000,38.361
21529,3.130,0.000,3.327,3.257,12.892,10.921,0.000,38.150
21557,3.131,0.000,3.327,3.257,12.892,10.921,0.000,37.929
21585,3.132,0.000,3.327,3.257,12.892,10.921,0.000,37.774
21613,3.132,0.000,3.327,3.257,12.892,10.921,0.000,37.664
21641,3.132,0.000,3.327,3.257,12.892,10.921,0.000,37.460
21669,3.133,0.000,3.327,3.257,12.892,10.921,0.000,37.298
21697,3.133,0.000,3.327,3.257,12.892,10.921,0.000,37.174
21725,3.134,0.000,3.327,3.257,12.892,10.921,0.000,37.008
21753,3.134,0.000,3.327,3.257,12.892,10.921,0.000,36.851
21781,3.135,0.000,3.327,3.257,12.892,10.921,0.000,36.761
21809,3.135,0.000,3.327,3.257,12.892,10.921,0.000,36.647
21837,3.135,0.000,3.327,3.257,12.892,10.921,0.000,36.527
21865,3.136,0.000,3.327,3.257,12.892,10.921,0.000,36.479
21893,3.136,0.000,3.327,3.257,12.892,10.921,0.000,36.382
21921,3.136,0.000,3.327,3.257,12.892,10.921,0.000,36.316
21949,3.137,0.000,3.327,3.257,12.892,10.921,0.000,36.179
21977,3.137,0.000,3.327,3.257,12.892,10.921,0.000,36.127
22005,3.137,0.000,3.327,3.257,12.892,10.921,0.000,35.991
22033,3.138,0.000,3.327,3.257,12.892,10.921,0.000,35.947
22061,3.138,0.000,3.327,3.257,12.892,10.921,0.000,35.844
22089,3.138,0.000,3.327,3.257,12.892,10.921,0.000,35.807
22117,3.138,0.000,3.327,3.257,12.892,10.921,0.000,35.718
22145,3.139,0.000,3.327,3.257,12.892,10.921,0.000,35.671
22173,3.139,0.000,3.327,3.257,12.892,10.921,0.000,35.645
22201,3.139,0.000,3.327,3.257,12.892,10.921,0.000,35.546
22229,3.140,0.000,3.327,3.257,12.892,10.921,0.000,35.524
22257,3.140,0.000,3.327,3.257,12.892,10.921,0.000,35.467
22285,3.140,0.000,3.327,3.257,12.892,10.921,0.000,35.454
22313,3.140,0.000,3.327,3.257,12.892,10.921,0.000,35.386
22341,3.141,0.000,3.327,3.257,12.892,10.921,0.000,35.333
22369,3.141,0.000,3.327,3.257,12.892,10.921,0.000,35.300
22397,3.141,0.000,3.327,3.257,12.892,10.921,0.000,35.258
22425,3.141,0.000,3.327,3.257,12.892,10.921,0.000,35.245
22453,3.141,0.000,3.327,3.257,12.892,10.921,0.000,35.197
22481,3.142,0.000,3.327,3.257,12.892,10.921,0.000,35.118
22509,3.142,0.000,3.327,3.257,12.892,10.921,0.000,35.092
22537,3.142,0.000,3.327,3.257,12.892,10.921,0.000,35.087
22565,3.142,0.000,3.327,3.257,12.892,10.921,0.000,35.051
22593,3.142,0.000,3.327,3.257,12.892,10.921,0.000,34.990
22621,3.143,0.000,3.327,3.257,12.892,10.921,0.000,35.017
22649,3.143,0.000,3.327,3.257,12.892,10.921,0.000,34.928
22677,3.143,0.000,3.327,3.257,12.892,10.921,0.000,34.950
22705,3.143,0.000,3.327,3.257,12.892,10.921,0.000,34.916
22733,3.143,0.000,3.327,3.257,12.892,10.921,0.000,34.916
22761,3.143,0.000,3.327,3.257,12.892,10.921,0.000,34.901
22789,3.144,0.000,3.327,3.257,12.892,10.921,0.000,34.882
22817,3.144,0.000,3.327,3.257,12.892,10.921,0.000,34.845
22845,3.144,0.000,3.327,3.257,12.892,10.921,0.000,34.843
22873,3.144,0.000,3.327,3.257,12.892,10.921,0.000,34.814
22901,3.144,0.000,3.327,3.257,12.892,10.921,0.000,34.809
22929,3.144,0.000,3.327,3.257,12.892,10.921,0.000,34.788
22957,3.145,0.000,3.327,3.257,12.892,10.921,0.000,34.763
22985,3.145,0.000,3.327,3.257,12.892,10.921,0.000,34.733
23013,3.145,0.000,3.327,3.257,12.892,10.921,0.000,34.745
23041,3.145,0.000,3.327,3.257,12.892,10.921,0.000,34.739
23069,3.145,0.000,3.327,3.257,12.892,10.921,0.000,34.706
23097,3.145,0.000,3.327,3.257,12.892,10.921,0.000,34.692
23125,3.146,0.000,3.327,3.257,12.892,10.921,0.000,34.704
23153,3.146,0.000,3.327,3.257,12.892,10.921,0.000,34.712
23181,3.146,0.000,3.327,3.257,12.892,10.921,0.000,34.680
23209,3.146,0.000,3.327,3.257,12.892,10.921,0.000,34.655
23237,3.146,0.000,3.327,3.257,12.892,10.921,0.000,34.636
23265,3.146,0.000,3.327,3.257,12.892,10.921,0.000,34.653
23293,3.146,0.000,3.327,3.257,12.892,10.921,0.000,34.615
23321,3.147,0.000,3.327,3.257,12.892,10.921,0.000,34.609
23349,3.147,0.000,3.327,3.257,12.892,10.921,0.000,34.634
23377,3.147,0.000,3.327,3.257,12.892,10.921,0.000,34.600
23405,3.147,0.000,3.327,3.257,12.892,10.921,0.000,34.598
23433,3.147,0.000,3.327,3.257,12.892,10.921,0.000,34.574
23461,3.147,0.000,3.327,3.257,12.892,10.921,0.000,34.586
23489,3.147,0.000,3.327,3.257,12.892,10.921,0.000,34.544
23517,3.148,0.000,3.327,3.257,12.892,10.921,0.000,34.574
23545,3.148,0.000,3.327,3.257,12.892,10.921,0.000,34.581
23573,3.148,0.000,3.327,3.257,12.892,10.921,0.000,34.568
23601,3.148,0.000,3.327,3.257,12.892,10.921,0.000,34.573
23629,3.148,0.000,3.327,3.257,12.892,10.921,0.000,34.551
23657,3.148,0.000,3.327,3.257,12.892,10.921,0.000,34.575
23685,3.148,0.000,3.327,3.257,12.892,10.921,0.000,34.552
23713,3.148,0.000,3.327,3.257,12.892,10.921,0.000,34.534
23741,3.149,0.000,3.327,3.257,12.892,10.921,0.000,34.548
23769,3.149,0.000,3.327,3.257,12.892,10.921,0.000,34.520
23797,3.149,0.000,3.327,3.257,12.892,10.921,0.000,34.520
23825,3.149,0.000,3.327,3.257,12.892,10.921,0.000,34.517
23853,3.149,0.000,3.327,3.257,12.892,10.921,0.000,34.540
23881,3.149,0.000,3.327,3.257,12.892,10.921,0.000,34.493
23909,3.149,0.000,3.327,3.257,12.892,10.921,0.000,34.507
23937,3.149,0.000,3.327,3.257,12.892,10.921,0.000,34.508
23965,3.149,0.000,3.327,3.257,12.892,10.921,0.000,34.514
23993,3.150,0.000,3.327,3.257,12.892,10.921,0.000,34.489
24021,3.150,0.000,3.327,3.257,12.892,10.921,0.000,34.520
24049,3.150,0.000,3.327,3.257,12.892,10.921,0.000,34.496
24077,3.150,0.000,3.327,3.257,12.892,10.921,0.000,34.548
24105,3.150,0.000,3.327,3.257,12.892,10.921,0.000,34.515
24133,3.150,0.000,3.327,3.257,12.892,10.921,0.000,34.492
24161,3.150,0.000,3.327,3.257,12.892,10.921,0.000,34.509
24189,3.150,0.000,3.327,3.257,12.892,10.921,0.000,34.508
24217,3.150,0.000,3.327,3.257,12.892,10.921,0.000,34.520
24245,3.150,0.000,3.327,3.257,12.892,10.921,0.000,34.539
24273,3.150,0.000,3.327,3.257,12.892,10.921,0.000,34.482
24301,3.151,0.000,3.327,3.257,12.892,10.921,0.000,34.486
24329,3.151,0.000,3.327,3.257,12.892,10.921,0.000,34.484
24357,3.151,0.000,3.327,3.257,12.892,10.921,0.000,34.489
24385,3.151,0.000,3.327,3.257,12.892,10.921,0.000,34.487
24413,3.151,0.000,3.327,3.257,12.892,10.921,0.000,34.493
24441,3.151,0.000,3.327,3.257,12.892,10.921,0.000,34.484
24459,3.151,0.000,3.327,3.257,12.892,10.921,0.000,34.456