File: data/T35/5C/1.csv
time_s,voltage_v,current_a,chargecapacity_ah,dischargecapacity_ah,charge_energy_wh,discharge_energy_wh,voltagedot_v_per_s,temp_degc
1,3.354,0.000,0.000,0.000,0.000,0.000,0.000,34.021
19,3.354,0.000,0.000,0.000,0.000,0.000,0.000,34.111
37,3.354,0.000,0.000,0.000,0.000,0.000,0.000,34.077
55,3.354,0.000,0.000,0.000,0.000,0.000,0.000,34.012
72,3.496,1.625,0.005,0.000,0.019,0.001,0.001,34.000
90,3.505,1.625,0.014,0.000,0.047,0.001,0.000,33.983
108,3.510,1.625,0.022,0.000,0.076,0.001,0.000,33.970
126,3.515,1.625,0.030,0.000,0.104,0.001,0.000,33.989
144,3.519,1.625,0.038,0.000,0.133,0.001,0.000,33.993
162,3.523,1.625,0.046,0.000,0.162,0.001,0.000,34.064
180,3.527,1.625,0.054,0.000,0.190,0.001,0.000,34.113
198,3.531,1.625,0.062,0.000,0.219,0.001,0.000,34.202
216,3.534,1.625,0.070,0.000,0.248,0.001,0.000,34.286
234,3.538,1.625,0.079,0.000,0.276,0.001,0.000,34.358
252,3.541,1.625,0.087,0.000,0.305,0.001,0.000,34.415
270,3.545,1.625,0.095,0.000,0.334,0.001,0.000,34.522
288,3.548,1.625,0.103,0.000,0.363,0.001,0.000,34.584
306,3.551,1.625,0.111,0.000,0.392,0.001,0.000,34.667
324,3.555,1.625,0.119,0.000,0.420,0.001,0.000,34.722
342,3.558,1.625,0.127,0.000,0.449,0.001,0.000,34.778
360,3.561,1.625,0.135,0.000,0.478,0.001,0.000,34.761
378,3.564,1.625,0.144,0.000,0.507,0.001,0.000,34.839
396,3.567,1.625,0.152,0.000,0.536,0.001,0.000,34.905
414,3.570,1.625,0.160,0.000,0.565,0.001,0.000,34.914
432,3.573,1.625,0.168,0.000,0.594,0.001,0.000,34.947
450,3.576,1.625,0.176,0.000,0.623,0.001,0.000,35.002
468,3.579,1.625,0.184,0.000,0.652,0.001,0.000,35.003
486,3.582,1.625,0.192,0.000,0.681,0.001,0.000,35.031
504,3.585,1.625,0.200,0.000,0.711,0.001,0.000,35.063
522,3.588,1.625,0.209,0.000,0.740,0.001,0.000,35.057
540,3.590,1.625,0.217,0.000,0.769,0.001,0.000,35.055
558,3.593,1.625,0.225,0.000,0.798,0.001,0.000,35.056
576,3.596,1.625,0.233,0.000,0.827,0.001,0.000,35.098
594,3.599,1.625,0.241,0.000,0.856,0.001,0.000,35.102
612,3.602,1.625,0.249,0.000,0.886,0.001,0.000,35.132
630,3.605,1.625,0.257,0.000,0.915,0.001,0.000,35.135
648,3.607,1.625,0.265,0.000,0.944,0.001,0.000,35.130
666,3.610,1.625,0.274,0.000,0.974,0.001,0.000,35.200
684,3.612,1.625,0.282,0.000,1.003,0.001,0.000,35.121
702,3.615,1.625,0.290,0.000,1.032,0.001,0.000,35.158
720,3.617,1.625,0.298,0.000,1.062,0.001,0.000,35.180
738,3.619,1.625,0.306,0.000,1.091,0.001,0.000,35.206
756,3.621,1.625,0.314,0.000,1.120,0.001,0.000,35.159
774,3.624,1.625,0.322,0.000,1.150,0.001,0.000,35.176
792,3.626,1.625,0.330,0.000,1.179,0.001,0.000,35.156
810,3.628,1.625,0.339,0.000,1.209,0.001,0.000,35.217
828,3.630,1.625,0.347,0.000,1.238,0.001,0.000,35.169
846,3.632,1.625,0.355,0.000,1.268,0.001,0.000,35.230
864,3.633,1.625,0.363,0.000,1.297,0.001,0.000,35.222
882,3.635,1.625,0.371,0.000,1.327,0.001,0.000,35.242
900,3.637,1.625,0.379,0.000,1.356,0.001,0.000,35.239
918,3.639,1.625,0.387,0.000,1.386,0.001,0.000,35.237
936,3.640,1.625,0.395,0.000,1.416,0.001,0.000,35.262
954,3.642,1.625,0.404,0.000,1.445,0.001,0.000,35.266
972,3.644,1.625,0.412,0.000,1.475,0.001,0.000,35.287
990,3.645,1.625,0.420,0.000,1.504,0.001,0.000,35.329
1008,3.647,1.625,0.428,0.000,1.534,0.001,0.000,35.304
1026,3.649,1.625,0.436,0.000,1.564,0.001,0.000,35.294
1044,3.650,1.625,0.444,0.000,1.593,0.001,0.000,35.324
1062,3.652,1.625,0.452,0.000,1.623,0.001,0.000,35.311
1080,3.653,1.625,0.460,0.000,1.653,0.001,0.000,35.340
1098,3.655,1.625,0.469,0.000,1.682,0.001,0.000,35.336
1116,3.657,1.625,0.477,0.000,1.712,0.001,0.000,35.349
1134,3.658,1.625,0.485,0.000,1.742,0.001,0.000,35.346
1152,3.660,1.625,0.493,0.000,1.771,0.001,0.000,35.334
1170,3.661,1.625,0.501,0.000,1.801,0.001,0.000,35.341
1188,3.663,1.625,0.509,0.000,1.831,0.001,0.000,35.391
1206,3.665,1.625,0.517,0.000,1.861,0.001,0.000,35.392
1224,3.667,1.625,0.525,0.000,1.891,0.001,0.000,35.389
1242,3.668,1.625,0.534,0.000,1.920,0.001,0.000,35.371
1260,3.670,1.625,0.542,0.000,1.950,0.001,0.000,35.405
1278,3.672,1.625,0.550,0.000,1.980,0.001,0.000,35.422
1296,3.673,1.625,0.558,0.000,2.010,0.001,0.000,35.428
1314,3.675,1.625,0.566,0.000,2.040,0.001,0.000,35.405
1332,3.677,1.625,0.574,0.000,2.070,0.001,0.000,35.459
1350,3.678,1.625,0.582,0.000,2.099,0.001,0.000,35.440
1368,3.680,1.625,0.590,0.000,2.129,0.001,0.000,35.423
1386,3.681,1.625,0.599,0.000,2.159,0.001,0.000,35.435
1404,3.683,1.625,0.607,0.000,2.189,0.001,0.000,35.456
1422,3.685,1.625,0.615,0.000,2.219,0.001,0.000,35.457
1440,3.686,1.625,0.623,0.000,2.249,0.001,0.000,35.515
1458,3.688,1.625,0.631,0.000,2.279,0.001,0.000,35.527
1476,3.690,1.625,0.639,0.000,2.309,0.001,0.000,35.527
1494,3.691,1.625,0.647,0.000,2.339,0.001,0.000,35.548
1512,3.693,1.625,0.655,0.000,2.369,0.001,0.000,35.504
1530,3.695,1.625,0.664,0.000,2.399,0.001,0.000,35.542
1548,3.697,1.625,0.672,0.000,2.429,0.001,0.000,35.560
1566,3.698,1.625,0.680,0.000,2.459,0.001,0.000,35.516
1584,3.700,1.625,0.688,0.000,2.489,0.001,0.000,35.552
1602,3.701,1.625,0.696,0.000,2.519,0.001,0.000,35.547
1620,3.703,1.625,0.704,0.000,2.549,0.001,0.000,35.568
1638,3.705,1.625,0.712,0.000,2.579,0.001,0.000,35.567
1656,3.707,1.625,0.720,0.000,2.609,0.001,0.000,35.605
1674,3.708,1.625,0.729,0.000,2.640,0.001,0.000,35.559
1692,3.710,1.625,0.737,0.000,2.670,0.001,0.000,35.606
1710,3.712,1.625,0.745,0.000,2.700,0.001,0.000,35.572
1728,3.713,1.625,0.753,0.000,2.730,0.001,0.000,35.635
1746,3.715,1.625,0.761,0.000,2.760,0.001,0.000,35.599
1764,3.717,1.625,0.769,0.000,2.790,0.001,0.000,35.601
1782,3.718,1.625,0.777,0.000,2.821,0.001,0.000,35.611
1800,3.720,1.625,0.785,0.000,2.851,0.001,0.000,35.611
1818,3.722,1.625,0.794,0.000,2.881,0.001,0.000,35.617
1836,3.723,1.625,0.802,0.000,2.911,0.001,0.000,35.628
1854,3.725,1.625,0.810,0.000,2.942,0.001,0.000,35.655
1872,3.727,1.625,0.818,0.000,2.972,0.001,0.000,35.628
1890,3.728,1.625,0.826,0.000,3.002,0.001,0.000,35.665
1908,3.730,1.625,0.834,0.000,3.032,0.001,0.000,35.642
1926,3.731,1.625,0.842,0.000,3.063,0.001,0.000,35.655
1944,3.733,1.625,0.850,0.000,3.093,0.001,0.000,35.684
1962,3.735,1.625,0.859,0.000,3.123,0.001,0.000,35.693
1980,3.736,1.625,0.867,0.000,3.154,0.001,0.000,35.729
1998,3.738,1.625,0.875,0.000,3.184,0.001,0.000,35.675
2016,3.739,1.625,0.883,0.000,3.215,0.001,0.000,35.694
2034,3.741,1.625,0.891,0.000,3.245,0.001,0.000,35.686
2052,3.742,1.625,0.899,0.000,3.275,0.001,0.000,35.699
2070,3.744,1.625,0.907,0.000,3.306,0.001,0.000,35.742
2088,3.746,1.625,0.915,0.000,3.336,0.001,0.000,35.742
2106,3.747,1.625,0.924,0.000,3.367,0.001,0.000,35.728
2124,3.748,1.625,0.932,0.000,3.397,0.001,0.000,35.695
2142,3.750,1.625,0.940,0.000,3.428,0.001,0.000,35.711
2160,3.751,1.625,0.948,0.000,3.458,0.001,0.000,35.739
2178,3.753,1.625,0.956,0.000,3.488,0.001,0.000,35.708
2196,3.754,1.625,0.964,0.000,3.519,0.001,0.000,35.710
2214,3.756,1.625,0.972,0.000,3.550,0.001,0.000,35.747
2232,3.758,1.625,0.980,0.000,3.580,0.001,0.000,35.788
2250,3.759,1.625,0.989,0.000,3.611,0.001,0.000,35.776
2268,3.760,1.625,0.997,0.000,3.641,0.001,0.000,35.730
2286,3.762,1.625,1.005,0.000,3.672,0.001,0.000,35.743
2304,3.763,1.625,1.013,0.000,3.702,0.001,0.000,35.742
2322,3.765,1.625,1.021,0.000,3.733,0.001,0.000,35.779
2340,3.766,1.625,1.029,0.000,3.763,0.001,0.000,35.744
2358,3.768,1.625,1.037,0.000,3.794,0.001,0.000,35.766
2376,3.770,1.625,1.045,0.000,3.825,0.001,0.000,35.759
2394,3.771,1.625,1.054,0.000,3.855,0.001,0.000,35.712
2412,3.773,1.625,1.062,0.000,3.886,0.001,0.000,35.841
2430,3.774,1.625,1.070,0.000,3.917,0.001,0.000,35.798
2448,3.776,1.625,1.078,0.000,3.947,0.001,0.000,35.778
2466,3.777,1.625,1.086,0.000,3.978,0.001,0.000,35.819
2484,3.779,1.625,1.094,0.000,4.009,0.001,0.000,35.812
2502,3.781,1.625,1.102,0.000,4.039,0.001,0.000,35.786
2520,3.782,1.625,1.111,0.000,4.070,0.001,0.000,35.818
2538,3.784,1.625,1.119,0.000,4.101,0.001,0.000,35.853
2556,3.785,1.625,1.127,0.000,4.132,0.001,0.000,35.803
2574,3.787,1.625,1.135,0.000,4.162,0.001,0.000,35.772
2592,3.789,1.625,1.143,0.000,4.193,0.001,0.000,35.748
2610,3.790,1.625,1.151,0.000,4.224,0.001,0.000,35.800
2628,3.792,1.625,1.159,0.000,4.255,0.001,0.000,35.809
2646,3.794,1.625,1.167,0.000,4.286,0.001,0.000,35.772
2664,3.795,1.625,1.176,0.000,4.316,0.001,0.000,35.808
2682,3.797,1.625,1.184,0.000,4.347,0.001,0.000,35.789
2700,3.799,1.625,1.192,0.000,4.378,0.001,0.000,35.797
2718,3.801,1.625,1.200,0.000,4.409,0.001,0.000,35.795
2736,3.802,1.625,1.208,0.000,4.440,0.001,0.000,35.820
2754,3.804,1.625,1.216,0.000,4.471,0.001,0.000,35.817
2772,3.806,1.625,1.224,0.000,4.502,0.001,0.000,35.821
2790,3.808,1.625,1.232,0.000,4.533,0.001,0.000,35.825
2808,3.810,1.625,1.241,0.000,4.564,0.001,0.000,35.823
2826,3.811,1.625,1.249,0.000,4.595,0.001,0.000,35.803
2844,3.813,1.625,1.257,0.000,4.626,0.001,0.000,35.844
2862,3.815,1.625,1.265,0.000,4.657,0.001,0.000,35.797
2880,3.817,1.625,1.273,0.000,4.688,0.001,0.000,35.833
2898,3.819,1.625,1.281,0.000,4.719,0.001,0.000,35.803
2916,3.821,1.625,1.289,0.000,4.750,0.001,0.000,35.844
2934,3.823,1.625,1.297,0.000,4.781,0.001,0.000,35.840
2952,3.825,1.625,1.306,0.000,4.812,0.001,0.000,35.860
2970,3.827,1.625,1.314,0.000,4.843,0.001,0.000,35.818
2988,3.829,1.625,1.322,0.000,4.874,0.001,0.000,35.771
3006,3.831,1.625,1.330,0.000,4.905,0.001,0.000,35.824
3024,3.833,1.625,1.338,0.000,4.936,0.001,0.000,35.834
3042,3.835,1.625,1.346,0.000,4.967,0.001,0.000,35.879
3060,3.837,1.625,1.354,0.000,4.998,0.001,0.000,35.868
3078,3.839,1.625,1.362,0.000,5.030,0.001,0.000,35.825
3096,3.841,1.625,1.371,0.000,5.061,0.001,0.000,35.820
3114,3.843,1.625,1.379,0.000,5.092,0.001,0.000,35.790
3132,3.845,1.625,1.387,0.000,5.123,0.001,0.000,35.830
3150,3.847,1.625,1.395,0.000,5.155,0.001,0.000,35.826
3168,3.849,1.625,1.403,0.000,5.186,0.001,0.000,35.874
3186,3.851,1.625,1.411,0.000,5.217,0.001,0.000,35.834
3204,3.853,1.625,1.419,0.000,5.248,0.001,0.000,35.825
3222,3.856,1.625,1.427,0.000,5.280,0.001,0.000,35.800
3240,3.858,1.625,1.436,0.000,5.311,0.001,0.000,35.871
3258,3.860,1.625,1.444,0.000,5.342,0.001,0.000,35.843
3276,3.862,1.625,1.452,0.000,5.374,0.001,0.000,35.879
3294,3.864,1.625,1.460,0.000,5.405,0.001,0.000,35.879
3312,3.866,1.625,1.468,0.000,5.437,0.001,0.000,35.845
3330,3.869,1.625,1.476,0.000,5.468,0.001,0.000,35.870
3348,3.871,1.625,1.484,0.000,5.499,0.001,0.000,35.831
3366,3.873,1.625,1.492,0.000,5.531,0.001,0.000,35.849
3384,3.875,1.625,1.501,0.000,5.562,0.001,0.000,35.813
3402,3.878,1.625,1.509,0.000,5.594,0.001,0.000,35.851
3420,3.880,1.625,1.517,0.000,5.625,0.001,0.000,35.789
3438,3.882,1.625,1.525,0.000,5.657,0.001,0.000,35.789
3456,3.884,1.625,1.533,0.000,5.689,0.001,0.000,35.866
3474,3.887,1.625,1.541,0.000,5.720,0.001,0.000,35.794
3492,3.889,1.625,1.549,0.000,5.752,0.001,0.000,35.809
3510,3.891,1.625,1.557,0.000,5.783,0.001,0.000,35.860
3528,3.894,1.625,1.566,0.000,5.815,0.001,0.000,35.858
3546,3.896,1.625,1.574,0.000,5.847,0.001,0.000,35.823
3564,3.898,1.625,1.582,0.000,5.878,0.001,0.000,35.868
3582,3.900,1.625,1.590,0.000,5.910,0.001,0.000,35.817
3600,3.903,1.625,1.598,0.000,5.942,0.001,0.000,35.842
3618,3.905,1.625,1.606,0.000,5.973,0.001,0.000,35.863
3636,3.907,1.625,1.614,0.000,6.005,0.001,0.000,35.827
3654,3.910,1.625,1.622,0.000,6.037,0.001,0.000,35.847
3672,3.912,1.625,1.631,0.000,6.069,0.001,0.000,35.832
3690,3.914,1.625,1.639,0.000,6.100,0.001,0.000,35.848
3708,3.917,1.625,1.647,0.000,6.132,0.001,0.000,35.832
3726,3.919,1.625,1.655,0.000,6.164,0.001,0.000,35.865
3744,3.921,1.625,1.663,0.000,6.196,0.001,0.000,35.856
3762,3.924,1.625,1.671,0.000,6.228,0.001,0.000,35.833
3780,3.926,1.625,1.679,0.000,6.260,0.001,0.000,35.816
3798,3.928,1.625,1.687,0.000,6.292,0.001,0.000,35.843
3816,3.931,1.625,1.696,0.000,6.324,0.001,0.000,35.810
3834,3.933,1.625,1.704,0.000,6.355,0.001,0.000,35.804
3852,3.935,1.625,1.712,0.000,6.387,0.001,0.000,35.806
3870,3.938,1.625,1.720,0.000,6.419,0.001,0.000,35.807
3888,3.940,1.625,1.728,0.000,6.451,0.001,0.000,35.813
3906,3.942,1.625,1.736,0.000,6.483,0.001,0.000,35.849
3924,3.945,1.625,1.744,0.000,6.516,0.001,0.000,35.824
3942,3.947,1.625,1.752,0.000,6.548,0.001,0.000,35.793
3960,3.949,1.625,1.761,0.000,6.580,0.001,0.000,35.785
3978,3.952,1.625,1.769,0.000,6.612,0.001,0.000,35.842
3996,3.954,1.625,1.777,0.000,6.644,0.001,0.000,35.850
4014,3.956,1.625,1.785,0.000,6.676,0.001,0.000,35.852
4032,3.959,1.625,1.793,0.000,6.708,0.001,0.000,35.843
4050,3.961,1.625,1.801,0.000,6.740,0.001,0.000,35.791
4068,3.963,1.625,1.809,0.000,6.773,0.001,0.000,35.856
4086,3.966,1.625,1.817,0.000,6.805,0.001,0.000,35.841
4104,3.968,1.625,1.826,0.000,6.837,0.001,0.000,35.813
4122,3.970,1.625,1.834,0.000,6.869,0.001,0.000,35.770
4140,3.973,1.625,1.842,0.000,6.902,0.001,0.000,35.788
4158,3.975,1.625,1.850,0.000,6.934,0.001,0.000,35.823
4176,3.977,1.625,1.858,0.000,6.966,0.001,0.000,35.828
4194,3.980,1.625,1.866,0.000,6.998,0.001,0.000,35.791
4212,3.982,1.625,1.874,0.000,7.031,0.001,0.000,35.799
4230,3.984,1.625,1.882,0.000,7.063,0.001,0.000,35.822
4248,3.986,1.625,1.891,0.000,7.096,0.001,0.000,35.772
4266,3.989,1.625,1.899,0.000,7.128,0.001,0.000,35.810
4284,3.991,1.625,1.907,0.000,7.160,0.001,0.000,35.783
4302,3.993,1.625,1.915,0.000,7.193,0.001,0.000,35.798
4320,3.996,1.625,1.923,0.000,7.225,0.001,0.000,35.765
4338,3.998,1.625,1.931,0.000,7.258,0.001,0.000,35.790
4356,4.000,1.625,1.939,0.000,7.290,0.001,0.000,35.816
4374,4.002,1.625,1.947,0.000,7.323,0.001,0.000,35.766
4392,4.005,1.625,1.956,0.000,7.355,0.001,0.000,35.765
4410,4.007,1.625,1.964,0.000,7.388,0.001,0.000,35.784
4428,4.009,1.625,1.972,0.000,7.420,0.001,0.000,35.757
4446,4.011,1.625,1.980,0.000,7.453,0.001,0.000,35.821
4464,4.014,1.625,1.988,0.000,7.486,0.001,0.000,35.787
4482,4.016,1.625,1.996,0.000,7.518,0.001,0.000,35.794
4500,4.018,1.625,2.004,0.000,7.551,0.001,0.000,35.758
4518,4.020,1.625,2.012,0.000,7.583,0.001,0.000,35.808
4536,4.023,1.625,2.021,0.000,7.616,0.001,0.000,35.756
4554,4.025,1.625,2.029,0.000,7.649,0.001,0.000,35.737
4572,4.027,1.625,2.037,0.000,7.682,0.001,0.000,35.721
4590,4.030,1.625,2.045,0.000,7.714,0.001,0.000,35.744
4608,4.032,1.625,2.053,0.000,7.747,0.001,0.000,35.781
4626,4.034,1.625,2.061,0.000,7.780,0.001,0.000,35.735
4644,4.036,1.625,2.069,0.000,7.813,0.001,0.000,35.762
4662,4.039,1.625,2.077,0.000,7.845,0.001,0.000,35.779
4680,4.041,1.625,2.086,0.000,7.878,0.001,0.000,35.754
4698,4.043,1.625,2.094,0.000,7.911,0.001,0.000,35.729
4716,4.046,1.625,2.102,0.000,7.944,0.001,0.000,35.786
4734,4.048,1.625,2.110,0.000,7.977,0.001,0.000,35.782
4752,4.050,1.625,2.118,0.000,8.010,0.001,0.000,35.768
4770,4.053,1.625,2.126,0.000,8.043,0.001,0.000,35.784
4788,4.055,1.625,2.134,0.000,8.076,0.001,0.000,35.772
4806,4.058,1.625,2.142,0.000,8.109,0.001,0.000,35.789
4824,4.060,1.625,2.151,0.000,8.142,0.001,0.000,35.783
4842,4.063,1.625,2.159,0.000,8.175,0.001,0.000,35.772
4860,4.065,1.625,2.167,0.000,8.208,0.001,0.000,35.807
4878,4.067,1.625,2.175,0.000,8.241,0.001,0.000,35.776
4896,4.070,1.625,2.183,0.000,8.274,0.001,0.000,35.803
4914,4.073,1.625,2.191,0.000,8.307,0.001,0.000,35.788
4932,4.075,1.625,2.199,0.000,8.340,0.001,0.000,35.773
4950,4.078,1.625,2.207,0.000,8.373,0.001,0.000,35.825
4968,4.080,1.625,2.216,0.000,8.406,0.001,0.000,35.762
4986,4.083,1.625,2.224,0.000,8.439,0.001,0.000,35.755
5004,4.086,1.625,2.232,0.000,8.473,0.001,0.000,35.847
5022,4.088,1.625,2.240,0.000,8.506,0.001,0.000,35.817
5040,4.091,1.625,2.248,0.000,8.539,0.001,0.000,35.817
5058,4.094,1.625,2.256,0.000,8.572,0.001,0.000,35.812
5076,4.096,1.625,2.264,0.000,8.605,0.001,0.000,35.821
5094,4.099,1.625,2.272,0.000,8.639,0.001,0.000,35.765
5112,4.102,1.625,2.281,0.000,8.672,0.001,0.000,35.837
5130,4.105,1.625,2.289,0.000,8.705,0.001,0.000,35.802
5148,4.108,1.625,2.297,0.000,8.739,0.001,0.000,35.808
5166,4.111,1.625,2.305,0.000,8.772,0.001,0.000,35.826
5184,4.113,1.625,2.313,0.000,8.806,0.001,0.000,35.833
5202,4.116,1.625,2.321,0.000,8.839,0.001,0.000,35.865
5220,4.119,1.625,2.329,0.000,8.872,0.001,0.000,35.846
5238,4.122,1.625,2.337,0.000,8.906,0.001,0.000,35.832
5256,4.125,1.625,2.346,0.000,8.939,0.001,0.000,35.857
5274,4.128,1.625,2.354,0.000,8.973,0.001,0.000,35.819
5292,4.131,1.625,2.362,0.000,9.007,0.001,0.000,35.880
5310,4.135,1.625,2.370,0.000,9.040,0.001,0.000,35.813
5328,4.138,1.625,2.378,0.000,9.074,0.001,0.000,35.883
5346,4.141,1.625,2.386,0.000,9.107,0.001,0.000,35.883
5364,4.144,1.625,2.394,0.000,9.141,0.001,0.000,35.887
5382,4.147,1.625,2.402,0.000,9.175,0.001,0.000,35.902
5400,4.151,1.625,2.411,0.000,9.208,0.001,0.000,35.875
5418,4.153,1.625,2.419,0.000,9.242,0.001,0.000,35.831
5436,4.157,1.625,2.427,0.000,9.276,0.001,0.000,35.897
5454,4.160,1.625,2.435,0.000,9.310,0.001,0.000,35.907
5472,4.163,1.625,2.443,0.000,9.344,0.001,0.000,35.894
5490,4.166,1.625,2.451,0.000,9.377,0.001,0.000,35.874
5508,4.170,1.625,2.459,0.000,9.411,0.001,0.000,35.867
5526,4.173,1.625,2.467,0.000,9.445,0.001,0.000,35.908
5544,4.176,1.625,2.476,0.000,9.479,0.001,0.000,35.888
5562,4.180,1.625,2.484,0.000,9.513,0.001,0.000,35.873
5580,4.183,1.625,2.492,0.000,9.547,0.001,0.000,35.909
5598,4.186,1.625,2.500,0.000,9.581,0.001,0.000,35.908
5616,4.189,1.625,2.508,0.000,9.615,0.001,0.000,35.914
5634,4.193,1.625,2.516,0.000,9.649,0.001,0.000,35.917
5652,4.196,1.625,2.524,0.000,9.683,0.001,0.000,35.901
5670,4.199,1.625,2.532,0.000,9.717,0.001,0.000,35.940
5688,4.200,1.585,2.540,0.000,9.751,0.001,0.000,35.953
5706,4.200,1.542,2.548,0.000,9.784,0.001,0.000,35.906
5724,4.200,1.505,2.556,0.000,9.816,0.001,0.000,35.917
5742,4.200,1.471,2.563,0.000,9.847,0.001,0.000,35.890
5760,4.200,1.442,2.571,0.000,9.877,0.001,0.000,35.917
5778,4.200,1.412,2.578,0.000,9.907,0.001,0.000,35.862
5796,4.200,1.384,2.585,0.000,9.937,0.001,0.000,35.912
5814,4.200,1.358,2.592,0.000,9.965,0.001,0.000,35.850
5832,4.200,1.334,2.598,0.000,9.994,0.001,0.000,35.851
5850,4.200,1.309,2.605,0.000,10.021,0.001,0.000,35.907
5868,4.200,1.287,2.611,0.000,10.049,0.001,0.000,35.848
5886,4.200,1.263,2.618,0.000,10.075,0.001,0.000,35.859
5904,4.200,1.241,2.624,0.000,10.102,0.001,0.000,35.820
5922,4.200,1.220,2.630,0.000,10.128,0.001,0.000,35.793
5940,4.200,1.199,2.636,0.000,10.153,0.001,0.000,35.829
5958,4.200,1.180,2.642,0.000,10.178,0.001,0.000,35.764
5976,4.200,1.160,2.648,0.000,10.202,0.001,0.000,35.790
5994,4.200,1.140,2.654,0.000,10.227,0.001,0.000,35.735
6012,4.200,1.124,2.659,0.000,10.250,0.001,0.000,35.792
6030,4.200,1.104,2.665,0.000,10.274,0.001,0.000,35.735
6048,4.200,1.088,2.670,0.000,10.297,0.001,0.000,35.682
6066,4.200,1.072,2.676,0.000,10.319,0.001,0.000,35.656
6084,4.200,1.055,2.681,0.000,10.342,0.001,0.000,35.626
6102,4.200,1.039,2.686,0.000,10.364,0.001,0.000,35.643
6120,4.200,1.024,2.692,0.000,10.385,0.001,0.000,35.603
6138,4.200,1.008,2.697,0.000,10.407,0.001,0.000,35.588
6156,4.200,0.993,2.702,0.000,10.428,0.001,0.000,35.631
6174,4.200,0.978,2.707,0.000,10.448,0.001,0.000,35.532
6192,4.200,0.965,2.711,0.000,10.469,0.001,0.000,35.530
6210,4.200,0.951,2.716,0.000,10.489,0.001,0.000,35.581
6228,4.200,0.937,2.721,0.000,10.509,0.001,0.000,35.572
6246,4.200,0.924,2.726,0.000,10.528,0.001,0.000,35.548
6264,4.200,0.911,2.730,0.000,10.548,0.001,0.000,35.515
6282,4.200,0.898,2.735,0.000,10.567,0.001,0.000,35.489
6300,4.200,0.885,2.739,0.000,10.585,0.001,0.000,35.451
6318,4.200,0.872,2.744,0.000,10.604,0.001,0.000,35.455
6336,4.200,0.861,2.748,0.000,10.622,0.001,0.000,35.423
6354,4.200,0.849,2.752,0.000,10.640,0.001,0.000,35.377
6372,4.200,0.836,2.756,0.000,10.658,0.001,0.000,35.387
6390,4.200,0.825,2.761,0.000,10.675,0.001,0.000,35.362
6408,4.200,0.815,2.765,0.000,10.692,0.001,0.000,35.364
6426,4.200,0.803,2.769,0.000,10.709,0.001,0.000,35.357
6444,4.200,0.792,2.773,0.000,10.726,0.001,0.000,35.329
6462,4.200,0.781,2.777,0.000,10.742,0.001,0.000,35.314
6480,4.200,0.770,2.780,0.000,10.759,0.001,0.000,35.320
6498,4.200,0.759,2.784,0.000,10.775,0.001,0.000,35.298
6516,4.200,0.748,2.788,0.000,10.791,0.001,0.000,35.277
6534,4.200,0.738,2.792,0.000,10.806,0.001,0.000,35.260
6552,4.200,0.728,2.795,0.000,10.822,0.001,0.000,35.306
6570,4.200,0.717,2.799,0.000,10.837,0.001,0.000,35.268
6588,4.200,0.707,2.803,0.000,10.852,0.001,0.000,35.240
6606,4.200,0.697,2.806,0.000,10.866,0.001,0.000,35.233
6624,4.200,0.687,2.810,0.000,10.881,0.001,0.000,35.220
6642,4.200,0.678,2.813,0.000,10.895,0.001,0.000,35.232
6660,4.200,0.668,2.816,0.000,10.909,0.001,0.000,35.236
6678,4.200,0.659,2.820,0.000,10.923,0.001,0.000,35.213
6696,4.200,0.648,2.823,0.000,10.937,0.001,0.000,35.165
6714,4.200,0.639,2.826,0.000,10.951,0.001,0.000,35.176
6732,4.200,0.629,2.829,0.000,10.964,0.001,0.000,35.203
6750,4.200,0.620,2.832,0.000,10.977,0.001,0.000,35.196
6768,4.200,0.612,2.836,0.000,10.990,0.001,0.000,35.154
6786,4.200,0.602,2.839,0.000,11.003,0.001,0.000,35.098
6804,4.200,0.594,2.842,0.000,11.015,0.001,0.000,35.156
6822,4.200,0.584,2.844,0.000,11.028,0.001,0.000,35.128
6840,4.200,0.575,2.847,0.000,11.040,0.001,0.000,35.133
6858,4.200,0.566,2.850,0.000,11.052,0.001,0.000,35.125
6876,4.200,0.558,2.853,0.000,11.064,0.001,0.000,35.110
6894,4.200,0.550,2.856,0.000,11.075,0.001,0.000,35.088
6912,4.200,0.542,2.859,0.000,11.087,0.001,0.000,35.109
6930,4.200,0.532,2.861,0.000,11.098,0.001,0.000,35.058
6948,4.200,0.524,2.864,0.000,11.109,0.001,0.000,35.040
6966,4.200,0.516,2.866,0.000,11.120,0.001,0.000,35.065
6984,4.200,0.508,2.869,0.000,11.131,0.001,0.000,35.041
7002,4.200,0.500,2.872,0.000,11.141,0.001,0.000,35.044
7020,4.200,0.491,2.874,0.000,11.152,0.001,0.000,35.042
7038,4.200,0.484,2.876,0.000,11.162,0.001,0.000,35.028
7056,4.200,0.476,2.879,0.000,11.172,0.001,0.000,35.011
7074,4.200,0.468,2.881,0.000,11.182,0.001,0.000,34.999
7092,4.200,0.460,2.884,0.000,11.192,0.001,0.000,35.026
7110,4.200,0.453,2.886,0.000,11.201,0.001,0.000,34.990
7128,4.200,0.445,2.888,0.000,11.211,0.001,0.000,35.016
7146,4.200,0.438,2.890,0.000,11.220,0.001,0.000,34.958
7164,4.200,0.431,2.892,0.000,11.229,0.001,0.000,35.003
7182,4.200,0.423,2.895,0.000,11.238,0.001,0.000,34.987
7200,4.200,0.416,2.897,0.000,11.247,0.001,0.000,35.003
7218,4.200,0.408,2.899,0.000,11.255,0.001,0.000,34.950
7236,4.200,0.402,2.901,0.000,11.264,0.001,0.000,34.935
7254,4.200,0.396,2.903,0.000,11.272,0.001,0.000,34.915
7272,4.200,0.389,2.905,0.000,11.281,0.001,0.000,34.950
7290,4.200,0.382,2.907,0.000,11.289,0.001,0.000,34.914
7308,4.200,0.375,2.909,0.000,11.297,0.001,0.000,34.951
7326,4.200,0.369,2.910,0.000,11.304,0.001,0.000,34.887
7344,4.200,0.362,2.912,0.000,11.312,0.001,0.000,34.854
7362,4.200,0.356,2.914,0.000,11.320,0.001,0.000,34.860
7380,4.200,0.350,2.916,0.000,11.327,0.001,0.000,34.847
7398,4.200,0.343,2.918,0.000,11.334,0.001,0.000,34.856
7416,4.200,0.338,2.919,0.000,11.341,0.001,0.000,34.866
7434,4.200,0.332,2.921,0.000,11.349,0.001,0.000,34.863
7452,4.200,0.325,2.923,0.000,11.355,0.001,0.000,34.792
7470,4.200,0.320,2.924,0.000,11.362,0.001,0.000,34.826
7488,4.200,0.314,2.926,0.000,11.369,0.001,0.000,34.865
7506,4.200,0.308,2.927,0.000,11.375,0.001,0.000,34.848
7524,4.200,0.302,2.929,0.000,11.382,0.001,0.000,34.838
7542,4.200,0.297,2.930,0.000,11.388,0.001,0.000,34.833
7560,4.200,0.293,2.932,0.000,11.394,0.001,0.000,34.857
7578,4.200,0.287,2.933,0.000,11.400,0.001,0.000,34.842
7596,4.200,0.282,2.935,0.000,11.406,0.001,0.000,34.830
7614,4.200,0.276,2.936,0.000,11.412,0.001,0.000,34.811
7632,4.200,0.271,2.937,0.000,11.418,0.001,0.000,34.809
7650,4.200,0.267,2.939,0.000,11.424,0.001,0.000,34.820
7668,4.200,0.262,2.940,0.000,11.429,0.001,0.000,34.793
7686,4.200,0.257,2.941,0.000,11.435,0.001,0.000,34.803
7704,4.200,0.252,2.943,0.000,11.440,0.001,0.000,34.816
7722,4.200,0.248,2.944,0.000,11.445,0.001,0.000,34.791
7740,4.200,0.243,2.945,0.000,11.450,0.001,0.000,34.784
7758,4.200,0.239,2.946,0.000,11.455,0.001,0.000,34.812
7776,4.200,0.234,2.948,0.000,11.460,0.001,0.000,34.812
7794,4.200,0.230,2.949,0.000,11.465,0.001,0.000,34.769
7812,4.200,0.225,2.950,0.000,11.470,0.001,0.000,34.796
7830,4.200,0.222,2.951,0.000,11.475,0.001,0.000,34.774
7848,4.200,0.217,2.952,0.000,11.479,0.001,0.000,34.809
7866,4.200,0.214,2.953,0.000,11.484,0.001,0.000,34.814
7884,4.200,0.210,2.954,0.000,11.488,0.001,0.000,34.724
7902,4.200,0.205,2.955,0.000,11.493,0.001,0.000,34.790
7920,4.200,0.202,2.956,0.000,11.497,0.001,0.000,34.773
7938,4.200,0.198,2.957,0.000,11.501,0.001,0.000,34.720
7956,4.200,0.194,2.958,0.000,11.505,0.001,0.000,34.785
7974,4.200,0.191,2.959,0.000,11.509,0.001,0.000,34.742
7992,4.200,0.188,2.960,0.000,11.513,0.001,0.000,34.770
8010,4.200,0.184,2.961,0.000,11.517,0.001,0.000,34.716
8028,4.200,0.180,2.962,0.000,11.521,0.001,0.000,34.770
8046,4.200,0.177,2.963,0.000,11.525,0.001,0.000,34.725
8064,4.200,0.174,2.964,0.000,11.528,0.001,0.000,34.757
8082,4.200,0.171,2.965,0.000,11.532,0.001,0.000,34.710
8100,4.200,0.168,2.965,0.000,11.536,0.001,0.000,34.738
8118,4.200,0.165,2.966,0.000,11.539,0.001,0.000,34.743
8136,4.200,0.162,2.967,0.000,11.543,0.001,0.000,34.732
8154,4.200,0.159,2.968,0.000,11.546,0.001,0.000,34.727
8172,4.200,0.155,2.969,0.000,11.549,0.001,0.000,34.729
8190,4.200,0.153,2.969,0.000,11.552,0.001,0.000,34.737
8208,4.200,0.150,2.970,0.000,11.556,0.001,0.000,34.742
8226,4.200,0.148,2.971,0.000,11.559,0.001,0.000,34.741
8244,4.200,0.145,2.972,0.000,11.562,0.001,0.000,34.701
8262,4.200,0.142,2.972,0.000,11.565,0.001,0.000,34.713
8280,4.200,0.139,2.973,0.000,11.568,0.001,0.000,34.683
8298,4.200,0.138,2.974,0.000,11.571,0.001,0.000,34.724
8316,4.200,0.135,2.974,0.000,11.574,0.001,0.000,34.715
8334,4.200,0.133,2.975,0.000,11.576,0.001,0.000,34.718
8352,4.200,0.130,2.976,0.000,11.579,0.001,0.000,34.753
8370,4.200,0.128,2.976,0.000,11.582,0.001,0.000,34.736
8388,4.200,0.125,2.977,0.000,11.584,0.001,0.000,34.713
8406,4.200,0.123,2.978,0.000,11.587,0.001,0.000,34.732
8424,4.200,0.120,2.978,0.000,11.590,0.001,0.000,34.739
8442,4.200,0.118,2.979,0.000,11.592,0.001,0.000,34.688
8460,4.200,0.116,2.979,0.000,11.595,0.001,0.000,34.696
8478,4.200,0.115,2.980,0.000,11.597,0.001,0.000,34.711
8496,4.200,0.112,2.981,0.000,11.599,0.001,0.000,34.709
8514,4.200,0.111,2.981,0.000,11.602,0.001,0.000,34.730
8532,4.200,0.109,2.982,0.000,11.604,0.001,0.000,34.686
8550,4.200,0.107,2.982,0.000,11.606,0.001,0.000,34.729
8568,4.200,0.105,2.983,0.000,11.609,0.001,0.000,34.684
8586,4.200,0.104,2.983,0.000,11.611,0.001,0.000,34.708
8604,4.200,0.102,2.984,0.000,11.613,0.001,0.000,34.742
8622,4.200,0.099,2.984,0.000,11.615,0.001,0.000,34.735
8640,4.200,0.098,2.985,0.000,11.617,0.001,0.000,34.708
8658,4.200,0.097,2.985,0.000,11.619,0.001,0.000,34.658
8676,4.200,0.094,2.986,0.000,11.621,0.001,0.000,34.718
8694,4.200,0.094,2.986,0.000,11.623,0.001,0.000,34.699
8712,4.200,0.091,2.987,0.000,11.625,0.001,0.000,34.672
8730,4.200,0.090,2.987,0.000,11.627,0.001,0.000,34.714
8748,4.200,0.088,2.988,0.000,11.629,0.001,0.000,34.665
8766,4.200,0.087,2.988,0.000,11.631,0.001,0.000,34.674
8784,4.200,0.085,2.988,0.000,11.632,0.001,0.000,34.715
8802,4.200,0.084,2.989,0.000,11.634,0.001,0.000,34.741
8820,4.200,0.083,2.989,0.000,11.636,0.001,0.000,34.652
8838,4.200,0.082,2.990,0.000,11.638,0.001,0.000,34.729
8856,4.200,0.080,2.990,0.000,11.639,0.001,0.000,34.703
8874,4.200,0.078,2.991,0.000,11.641,0.001,0.000,34.695
8892,4.200,0.078,2.991,0.000,11.643,0.001,0.000,34.661
8910,4.200,0.077,2.991,0.000,11.644,0.001,0.000,34.682
8928,4.200,0.075,2.992,0.000,11.646,0.001,0.000,34.656
8946,4.200,0.074,2.992,0.000,11.647,0.001,0.000,34.683
8964,4.200,0.072,2.992,0.000,11.649,0.001,0.000,34.690
8982,4.200,0.071,2.993,0.000,11.651,0.001,0.000,34.669
9000,4.200,0.070,2.993,0.000,11.652,0.001,0.000,34.701
9018,4.200,0.069,2.993,0.000,11.653,0.001,0.000,34.694
9036,4.200,0.068,2.994,0.000,11.655,0.001,0.000,34.697
9054,4.200,0.068,2.994,0.000,11.656,0.001,0.000,34.716
9072,4.200,0.066,2.994,0.000,11.658,0.001,0.000,34.681
9089,4.196,0.000,2.995,0.000,11.658,0.001,0.000,34.689
9107,4.195,0.000,2.995,0.000,11.658,0.001,0.000,34.684
9125,4.194,0.000,2.995,0.000,11.658,0.001,0.000,34.694
9143,4.194,0.000,2.995,0.000,11.658,0.001,0.000,34.703
9161,4.194,0.000,2.995,0.000,11.658,0.001,0.000,34.708
9179,4.193,0.000,2.995,0.000,11.658,0.001,0.000,34.690
9197,4.193,0.000,2.995,0.000,11.658,0.001,0.000,34.703
9215,4.193,0.000,2.995,0.000,11.658,0.001,0.000,34.659
9233,4.193,0.000,2.995,0.000,11.658,0.001,0.000,34.700
9251,4.192,0.000,2.995,0.000,11.658,0.001,0.000,34.673
9269,4.192,0.000,2.995,0.000,11.658,0.001,0.000,34.682
9287,4.192,0.000,2.995,0.000,11.658,0.001,0.000,34.665
9305,4.192,0.000,2.995,0.000,11.658,0.001,0.000,34.650
9323,4.192,0.000,2.995,0.000,11.658,0.001,0.000,34.643
9341,4.192,0.000,2.995,0.000,11.658,0.001,0.000,34.675
9359,4.191,0.000,2.995,0.000,11.658,0.001,0.000,34.664
9377,4.191,0.000,2.995,0.000,11.658,0.001,0.000,34.644
9395,4.191,0.000,2.995,0.000,11.658,0.001,0.000,34.638
9413,4.191,0.000,2.995,0.000,11.658,0.001,0.000,34.642
9431,4.191,0.000,2.995,0.000,11.658,0.001,0.000,34.632
9449,4.191,0.000,2.995,0.000,11.658,0.001,0.000,34.700
9467,4.191,0.000,2.995,0.000,11.658,0.001,0.000,34.649
9485,4.190,0.000,2.995,0.000,11.658,0.001,0.000,34.634
9503,4.190,0.000,2.995,0.000,11.658,0.001,0.000,34.690
9521,4.190,0.000,2.995,0.000,11.658,0.001,0.000,34.669
9539,4.190,0.000,2.995,0.000,11.658,0.001,0.000,34.675
9557,4.190,0.000,2.995,0.000,11.658,0.001,0.000,34.647
9575,4.190,0.000,2.995,0.000,11.658,0.001,0.000,34.642
9593,4.190,0.000,2.995,0.000,11.658,0.001,0.000,34.668
9611,4.189,0.000,2.995,0.000,11.658,0.001,0.000,34.661
9629,4.189,0.000,2.995,0.000,11.658,0.001,0.000,34.708
9647,4.189,0.000,2.995,0.000,11.658,0.001,0.000,34.644
9665,4.189,0.000,2.995,0.000,11.658,0.001,0.000,34.649
9683,4.189,0.000,2.995,0.000,11.658,0.001,0.000,34.626
9701,4.189,0.000,2.995,0.000,11.658,0.001,0.000,34.632
9719,4.189,0.000,2.995,0.000,11.658,0.001,0.000,34.626
9737,4.189,0.000,2.995,0.000,11.658,0.001,0.000,34.666
9755,4.189,0.000,2.995,0.000,11.658,0.001,0.000,34.673
9773,4.188,0.000,2.995,0.000,11.658,0.001,0.000,34.681
9791,4.188,0.000,2.995,0.000,11.658,0.001,0.000,34.598
9809,4.188,0.000,2.995,0.000,11.658,0.001,0.000,34.637
9827,4.188,0.000,2.995,0.000,11.658,0.001,0.000,34.648
9845,4.188,0.000,2.995,0.000,11.658,0.001,0.000,34.652
9863,4.188,0.000,2.995,0.000,11.658,0.001,0.000,34.620
9881,4.188,0.000,2.995,0.000,11.658,0.001,0.000,34.643
9899,4.188,0.000,2.995,0.000,11.658,0.001,0.000,34.648
9917,4.188,0.000,2.995,0.000,11.658,0.001,0.000,34.647
9935,4.188,0.000,2.995,0.000,11.658,0.001,0.000,34.651
9953,4.188,0.000,2.995,0.000,11.658,0.001,0.000,34.663
9971,4.188,0.000,2.995,0.000,11.658,0.001,0.000,34.680
9989,4.187,0.000,2.995,0.000,11.658,0.001,0.000,34.630
10007,4.187,0.000,2.995,0.000,11.658,0.001,0.000,34.675
10025,4.187,0.000,2.995,0.000,11.658,0.001,0.000,34.641
10043,4.187,0.000,2.995,0.000,11.658,0.001,0.000,34.613
10061,4.187,0.000,2.995,0.000,11.658,0.001,0.000,34.645
10079,4.187,0.000,2.995,0.000,11.658,0.001,0.000,34.654
10097,4.187,0.000,2.995,0.000,11.658,0.001,0.000,34.628
10115,4.187,0.000,2.995,0.000,11.658,0.001,0.000,34.631
10133,4.187,0.000,2.995,0.000,11.658,0.001,0.000,34.671
10151,4.187,0.000,2.995,0.000,11.658,0.001,0.000,34.592
10169,4.187,0.000,2.995,0.000,11.658,0.001,0.000,34.628
10187,4.187,0.000,2.995,0.000,11.658,0.001,0.000,34.632
10205,4.187,0.000,2.995,0.000,11.658,0.001,0.000,34.657
10223,4.187,0.000,2.995,0.000,11.658,0.001,0.000,34.615
10241,4.186,0.000,2.995,0.000,11.658,0.001,0.000,34.633
10259,4.186,0.000,2.995,0.000,11.658,0.001,0.000,34.640
10277,4.186,0.000,2.995,0.000,11.658,0.001,0.000,34.647
10295,4.186,0.000,2.995,0.000,11.658,0.001,0.000,34.652
10313,4.186,0.000,2.995,0.000,11.658,0.001,0.000,34.628
10331,4.186,0.000,2.995,0.000,11.658,0.001,0.000,34.599
10349,4.186,0.000,2.995,0.000,11.658,0.001,0.000,34.659
10367,4.186,0.000,2.995,0.000,11.658,0.001,0.000,34.638
10385,4.186,0.000,2.995,0.000,11.658,0.001,0.000,34.623
10403,4.186,0.000,2.995,0.000,11.658,0.001,0.000,34.655
10421,4.186,0.000,2.995,0.000,11.658,0.001,0.000,34.613
10439,4.186,0.000,2.995,0.000,11.658,0.001,0.000,34.613
10457,4.186,0.000,2.995,0.000,11.658,0.001,0.000,34.665
10475,4.186,0.000,2.995,0.000,11.658,0.001,0.000,34.664
10493,4.186,0.000,2.995,0.000,11.658,0.001,0.000,34.646
10511,4.186,0.000,2.995,0.000,11.658,0.001,0.000,34.660
10529,4.186,0.000,2.995,0.000,11.658,0.001,0.000,34.632
10547,4.186,0.000,2.995,0.000,11.658,0.001,0.000,34.659
10565,4.185,0.000,2.995,0.000,11.658,0.001,0.000,34.632
10583,4.185,0.000,2.995,0.000,11.658,0.001,0.000,34.625
10601,4.185,0.000,2.995,0.000,11.658,0.001,0.000,34.671
10619,4.185,0.000,2.995,0.000,11.658,0.001,0.000,34.649
10637,4.185,0.000,2.995,0.000,11.658,0.001,0.000,34.633
10655,4.185,0.000,2.995,0.000,11.658,0.001,0.000,34.635
10673,4.185,0.000,2.995,0.000,11.658,0.001,0.000,34.664
10691,4.185,0.000,2.995,0.000,11.658,0.001,0.000,34.613
10709,4.185,0.000,2.995,0.000,11.658,0.001,0.000,34.631
10727,4.185,0.000,2.995,0.000,11.658,0.001,0.000,34.642
10745,4.185,0.000,2.995,0.000,11.658,0.001,0.000,34.638
10763,4.185,0.000,2.995,0.000,11.658,0.001,0.000,34.634
10781,4.185,0.000,2.995,0.000,11.658,0.001,0.000,34.661
10799,4.185,0.000,2.995,0.000,11.658,0.001,0.000,34.693
10817,4.185,0.000,2.995,0.000,11.658,0.001,0.000,34.638
10835,4.185,0.000,2.995,0.000,11.658,0.001,0.000,34.638
10853,4.185,0.000,2.995,0.000,11.658,0.001,0.000,34.650
10871,4.185,0.000,2.995,0.000,11.658,0.001,0.000,34.653
10889,4.185,0.000,2.995,0.000,11.658,0.001,0.000,34.638
10907,4.185,0.000,2.995,0.000,11.658,0.001,0.000,34.615
10925,4.185,0.000,2.995,0.000,11.658,0.001,0.000,34.651
10943,4.185,0.000,2.995,0.000,11.658,0.001,0.000,34.621
10961,4.185,0.000,2.995,0.000,11.658,0.001,0.000,34.647
10979,4.184,0.000,2.995,0.000,11.658,0.001,0.000,34.656
10997,4.184,0.000,2.995,0.000,11.658,0.001,0.000,34.640
11015,4.184,0.000,2.995,0.000,11.658,0.001,0.000,34.626
11033,4.184,0.000,2.995,0.000,11.658,0.001,0.000,34.639
11051,4.184,0.000,2.995,0.000,11.658,0.001,0.000,34.633
11069,4.184,0.000,2.995,0.000,11.658,0.001,0.000,34.643
11087,4.184,0.000,2.995,0.000,11.658,0.001,0.000,34.613
11105,4.184,0.000,2.995,0.000,11.658,0.001,0.000,34.650
11123,4.184,0.000,2.995,0.000,11.658,0.001,0.000,34.627
11141,4.184,0.000,2.995,0.000,11.658,0.001,0.000,34.633
11159,4.184,0.000,2.995,0.000,11.658,0.001,0.000,34.607
11177,4.184,0.000,2.995,0.000,11.658,0.001,0.000,34.628
11195,4.184,0.000,2.995,0.000,11.658,0.001,0.000,34.626
11213,4.184,0.000,2.995,0.000,11.658,0.001,0.000,34.651
11231,4.184,0.000,2.995,0.000,11.658,0.001,0.000,34.654
11249,4.184,0.000,2.995,0.000,11.658,0.001,0.000,34.625
11267,4.184,0.000,2.995,0.000,11.658,0.001,0.000,34.625
11285,4.184,0.000,2.995,0.000,11.658,0.001,0.000,34.636
11303,4.184,0.000,2.995,0.000,11.658,0.001,0.000,34.652
11321,4.184,0.000,2.995,0.000,11.658,0.001,0.000,34.639
11339,4.184,0.000,2.995,0.000,11.658,0.001,0.000,34.645
11357,4.184,0.000,2.995,0.000,11.658,0.001,0.000,34.636
11375,4.184,0.000,2.995,0.000,11.658,0.001,0.000,34.608
11393,4.184,0.000,2.995,0.000,11.658,0.001,0.000,34.621
11411,4.184,0.000,2.995,0.000,11.658,0.001,0.000,34.632
11429,4.184,0.000,2.995,0.000,11.658,0.001,0.000,34.656
11447,4.184,0.000,2.995,0.000,11.658,0.001,0.000,34.645
11465,4.183,0.000,2.995,0.000,11.658,0.001,0.000,34.615
11483,4.184,0.000,2.995,0.000,11.658,0.001,0.000,34.645
11501,4.183,0.000,2.995,0.000,11.658,0.001,0.000,34.644
11519,4.183,0.000,2.995,0.000,11.658,0.001,0.000,34.644
11537,4.183,0.000,2.995,0.000,11.658,0.001,0.000,34.694
11555,4.183,0.000,2.995,0.000,11.658,0.001,0.000,34.630
11573,4.183,0.000,2.995,0.000,11.658,0.001,0.000,34.654
11591,4.183,0.000,2.995,0.000,11.658,0.001,0.000,34.657
11609,4.183,0.000,2.995,0.000,11.658,0.001,0.000,34.660
11627,4.183,0.000,2.995,0.000,11.658,0.001,0.000,34.649
11645,4.183,0.000,2.995,0.000,11.658,0.001,0.000,34.625
11663,4.183,0.000,2.995,0.000,11.658,0.001,0.000,34.627
11681,4.183,0.000,2.995,0.000,11.658,0.001,0.000,34.680
11699,4.183,0.000,2.995,0.000,11.658,0.001,0.000,34.696
11717,4.183,0.000,2.995,0.000,11.658,0.001,0.000,34.581
11735,4.183,0.000,2.995,0.000,11.658,0.001,0.000,34.652
11753,4.183,0.000,2.995,0.000,11.658,0.001,0.000,34.638
11771,4.183,0.000,2.995,0.000,11.658,0.001,0.000,34.646
11789,4.183,0.000,2.995,0.000,11.658,0.001,0.000,34.643
11807,4.183,0.000,2.995,0.000,11.658,0.001,0.000,34.641
11825,4.183,0.000,2.995,0.000,11.658,0.001,0.000,34.680
11843,4.183,0.000,2.995,0.000,11.658,0.001,0.000,34.704
11861,4.183,0.000,2.995,0.000,11.658,0.001,0.000,34.687
11879,4.183,0.000,2.995,0.000,11.658,0.001,0.000,34.662
11897,4.183,0.000,2.995,0.000,11.658,0.001,0.000,34.608
11915,4.183,0.000,2.995,0.000,11.658,0.001,0.000,34.598
11933,4.183,0.000,2.995,0.000,11.658,0.001,0.000,34.631
11951,4.183,0.000,2.995,0.000,11.658,0.001,0.000,34.662
11969,4.183,0.000,2.995,0.000,11.658,0.001,0.000,34.673
11987,4.183,0.000,2.995,0.000,11.658,0.001,0.000,34.679
12005,4.183,0.000,2.995,0.000,11.658,0.001,0.000,34.654
12023,4.183,0.000,2.995,0.000,11.658,0.001,0.000,34.677
12041,4.182,0.000,2.995,0.000,11.658,0.001,0.000,34.631
12059,4.182,0.000,2.995,0.000,11.658,0.001,0.000,34.662
12077,4.182,0.000,2.995,0.000,11.658,0.001,0.000,34.662
12095,4.182,0.000,2.995,0.000,11.658,0.001,0.000,34.672
12113,4.182,0.000,2.995,0.000,11.658,0.001,0.000,34.645
12131,4.182,0.000,2.995,0.000,11.658,0.001,0.000,34.659
12149,4.182,0.000,2.995,0.000,11.658,0.001,0.000,34.644
12167,4.182,0.000,2.995,0.000,11.658,0.001,0.000,34.677
12185,4.182,0.000,2.995,0.000,11.658,0.001,0.000,34.719
12203,4.182,0.000,2.995,0.000,11.658,0.001,0.000,34.645
12221,4.182,0.000,2.995,0.000,11.658,0.001,0.000,34.684
12239,4.182,0.000,2.995,0.000,11.658,0.001,0.000,34.620
12257,4.182,0.000,2.995,0.000,11.658,0.001,0.000,34.640
12275,4.182,0.000,2.995,0.000,11.658,0.001,0.000,34.626
12293,4.182,0.000,2.995,0.000,11.658,0.001,0.000,34.656
12311,4.182,0.000,2.995,0.000,11.658,0.001,0.000,34.640
12329,4.182,0.000,2.995,0.000,11.658,0.001,0.000,34.652
12347,4.182,0.000,2.995,0.000,11.658,0.001,0.000,34.643
12365,4.182,0.000,2.995,0.000,11.658,0.001,0.000,34.652
12383,4.182,0.000,2.995,0.000,11.658,0.001,0.000,34.646
12401,4.182,0.000,2.995,0.000,11.658,0.001,0.000,34.606
12419,4.182,0.000,2.995,0.000,11.658,0.001,0.000,34.651
12437,4.182,0.000,2.995,0.000,11.658,0.001,0.000,34.637
12455,4.182,0.000,2.995,0.000,11.658,0.001,0.000,34.640
12473,4.182,0.000,2.995,0.000,11.658,0.001,0.000,34.614
12491,4.182,0.000,2.995,0.000,11.658,0.001,0.000,34.594
12509,4.182,0.000,2.995,0.000,11.658,0.001,0.000,34.688
12527,4.182,0.000,2.995,0.000,11.658,0.001,0.000,34.661
12545,4.182,0.000,2.995,0.000,11.658,0.001,0.000,34.614
12563,4.182,0.000,2.995,0.000,11.658,0.001,0.000,34.670
12581,4.182,0.000,2.995,0.000,11.658,0.001,0.000,34.648
12599,4.182,0.000,2.995,0.000,11.658,0.001,0.000,34.655
12617,4.182,0.000,2.995,0.000,11.658,0.001,0.000,34.623
12635,4.182,0.000,2.995,0.000,11.658,0.001,0.000,34.638
12653,4.182,0.000,2.995,0.000,11.658,0.001,0.000,34.638
12671,4.182,0.000,2.995,0.000,11.658,0.001,0.000,34.620
12688,3.143,-16.751,2.995,0.037,11.658,0.120,-0.012,35.044
12706,2.976,-16.750,2.995,0.121,11.658,0.376,-0.009,37.813
12724,3.975,0.000,2.995,0.179,11.658,0.544,0.011,40.533
12742,4.044,0.000,2.995,0.179,11.658,0.544,0.002,41.500
12760,4.065,0.000,2.995,0.179,11.658,0.544,0.001,41.601
12778,4.077,0.000,2.995,0.179,11.658,0.544,0.001,41.197
12796,4.085,0.000,2.995,0.179,11.658,0.544,0.001,40.769
12814,4.090,0.000,2.995,0.179,11.658,0.544,0.000,40.367
12832,4.094,0.000,2.995,0.179,11.658,0.544,0.000,39.960
12850,4.096,0.000,2.995,0.179,11.658,0.544,0.000,39.655
12868,4.097,0.000,2.995,0.179,11.658,0.544,0.000,39.308
12886,4.098,0.000,2.995,0.179,11.658,0.544,0.000,38.978
12904,4.098,0.000,2.995,0.179,11.658,0.544,0.000,38.672
12922,4.099,0.000,2.995,0.179,11.658,0.544,0.000,38.469
12940,4.099,0.000,2.995,0.179,11.658,0.544,0.000,38.141
12958,4.100,0.000,2.995,0.179,11.658,0.544,0.000,37.933
12976,4.100,0.000,2.995,0.179,11.658,0.544,0.000,37.717
12994,4.100,0.000,2.995,0.179,11.658,0.544,0.000,37.510
13012,4.100,0.000,2.995,0.179,11.658,0.544,0.000,37.335
13030,4.100,0.000,2.995,0.179,11.658,0.544,0.000,37.218
13048,4.101,0.000,2.995,0.179,11.658,0.544,0.000,37.047
13066,4.101,0.000,2.995,0.179,11.658,0.544,0.000,36.863
13084,4.101,0.000,2.995,0.179,11.658,0.544,0.000,36.753
13102,4.101,0.000,2.995,0.179,11.658,0.544,0.000,36.668
13120,4.101,0.000,2.995,0.179,11.658,0.544,0.000,36.547
13138,4.101,0.000,2.995,0.179,11.658,0.544,0.000,36.432
13156,4.101,0.000,2.995,0.179,11.658,0.544,0.000,36.320
13174,4.101,0.000,2.995,0.179,11.658,0.544,0.000,36.201
13192,4.101,0.000,2.995,0.179,11.658,0.544,0.000,36.103
13210,4.101,0.000,2.995,0.179,11.658,0.544,0.000,36.011
13228,4.101,0.000,2.995,0.179,11.658,0.544,0.000,35.928
13246,4.101,0.000,2.995,0.179,11.658,0.544,0.000,35.872
13264,4.101,0.000,2.995,0.179,11.658,0.544,0.000,35.811
13282,4.101,0.000,2.995,0.179,11.658,0.544,0.000,35.752
13300,4.101,0.000,2.995,0.179,11.658,0.544,0.000,35.678
13318,4.102,0.000,2.995,0.179,11.658,0.544,0.000,35.614
13336,4.102,0.000,2.995,0.179,11.658,0.544,0.000,35.579
13354,4.102,0.000,2.995,0.179,11.658,0.544,0.000,35.539
13372,4.102,0.000,2.995,0.179,11.658,0.544,0.000,35.472
13390,4.102,0.000,2.995,0.179,11.658,0.544,0.000,35.424
13408,4.102,0.000,2.995,0.179,11.658,0.544,0.000,35.365
13426,4.102,0.000,2.995,0.179,11.658,0.544,0.000,35.339
13444,4.102,0.000,2.995,0.179,11.658,0.544,0.000,35.323
13462,4.102,0.000,2.995,0.179,11.658,0.544,0.000,35.270
13480,4.102,0.000,2.995,0.179,11.658,0.544,0.000,35.210
13498,4.102,0.000,2.995,0.179,11.658,0.544,0.000,35.182
13516,4.102,0.000,2.995,0.179,11.658,0.544,0.000,35.154
13534,4.102,0.000,2.995,0.179,11.658,0.544,0.000,35.147
13552,4.102,0.000,2.995,0.179,11.658,0.544,0.000,35.117
13570,4.102,0.000,2.995,0.179,11.658,0.544,0.000,35.085
13588,4.102,0.000,2.995,0.179,11.658,0.544,0.000,35.060
13606,4.102,0.000,2.995,0.179,11.658,0.544,0.000,35.097
13624,4.102,0.000,2.995,0.179,11.658,0.544,0.000,35.039
13642,4.102,0.000,2.995,0.179,11.658,0.544,0.000,35.005
13660,4.102,0.000,2.995,0.179,11.658,0.544,0.000,34.977
13678,4.102,0.000,2.995,0.179,11.658,0.544,0.000,34.955
13696,4.102,0.000,2.995,0.179,11.658,0.544,0.000,34.966
13714,4.102,0.000,2.995,0.179,11.658,0.544,0.000,34.960
13732,4.102,0.000,2.995,0.179,11.658,0.544,0.000,34.918
13750,4.102,0.000,2.995,0.179,11.658,0.544,0.000,34.950
13768,4.102,0.000,2.995,0.179,11.658,0.544,0.000,34.884
13786,4.102,0.000,2.995,0.179,11.658,0.544,0.000,34.870
13804,4.102,0.000,2.995,0.179,11.658,0.544,0.000,34.865
13822,4.102,0.000,2.995,0.179,11.658,0.544,0.000,34.843
13840,4.102,0.000,2.995,0.179,11.658,0.544,0.000,34.851
13858,4.102,0.000,2.995,0.179,11.658,0.544,0.000,34.855
13876,4.102,0.000,2.995,0.179,11.658,0.544,0.000,34.825
13894,4.102,0.000,2.995,0.179,11.658,0.544,0.000,34.877
13912,4.102,0.000,2.995,0.179,11.658,0.544,0.000,34.813
13930,4.102,0.000,2.995,0.179,11.658,0.544,0.000,34.796
13948,4.102,0.000,2.995,0.179,11.658,0.544,0.000,34.774
13966,4.102,0.000,2.995,0.179,11.658,0.544,0.000,34.792
13984,4.102,0.000,2.995,0.179,11.658,0.544,0.000,34.774
14002,4.102,0.000,2.995,0.179,11.658,0.544,0.000,34.754
14020,4.102,0.000,2.995,0.179,11.658,0.544,0.000,34.816
14038,4.102,0.000,2.995,0.179,11.658,0.544,0.000,34.775
14056,4.102,0.000,2.995,0.179,11.658,0.544,0.000,34.788
14074,4.102,0.000,2.995,0.179,11.658,0.544,0.000,34.723
14092,4.102,0.000,2.995,0.179,11.658,0.544,0.000,34.762
14110,4.102,0.000,2.995,0.179,11.658,0.544,0.000,34.760
14128,4.102,0.000,2.995,0.179,11.658,0.544,0.000,34.714
14146,4.102,0.000,2.995,0.179,11.658,0.544,0.000,34.713
14164,4.102,0.000,2.995,0.179,11.658,0.544,0.000,34.737
14182,4.102,0.000,2.995,0.179,11.658,0.544,0.000,34.709
14200,4.102,0.000,2.995,0.179,11.658,0.544,0.000,34.735
14218,4.102,0.000,2.995,0.179,11.658,0.544,0.000,34.728
14236,4.103,0.000,2.995,0.179,11.658,0.544,0.000,34.719
14254,4.102,0.000,2.995,0.179,11.658,0.544,0.000,34.724
14272,4.102,0.000,2.995,0.179,11.658,0.544,0.000,34.738
14290,4.103,0.000,2.995,0.179,11.658,0.544,0.000,34.679
14308,4.102,0.000,2.995,0.179,11.658,0.544,0.000,34.727
14326,4.102,0.000,2.995,0.179,11.658,0.544,0.000,34.724
14344,4.102,0.000,2.995,0.179,11.658,0.544,0.000,34.722
14362,4.102,0.000,2.995,0.179,11.658,0.544,0.000,34.684
14380,4.102,0.000,2.995,0.179,11.658,0.544,0.000,34.669
14398,4.103,0.000,2.995,0.179,11.658,0.544,0.000,34.707
14416,4.102,0.000,2.995,0.179,11.658,0.544,0.000,34.670
14434,4.102,0.000,2.995,0.179,11.658,0.544,0.000,34.667
14452,4.102,0.000,2.995,0.179,11.658,0.544,0.000,34.715
14470,4.102,0.000,2.995,0.179,11.658,0.544,0.000,34.718
14488,4.103,0.000,2.995,0.179,11.658,0.544,0.000,34.696
14506,4.103,0.000,2.995,0.179,11.658,0.544,0.000,34.689
14524,4.103,0.000,2.995,0.179,11.658,0.544,0.000,34.716
14542,4.103,0.000,2.995,0.179,11.658,0.544,0.000,34.671
14560,4.102,0.000,2.995,0.179,11.658,0.544,0.000,34.694
14578,4.103,0.000,2.995,0.179,11.658,0.544,0.000,34.677
14596,4.102,0.000,2.995,0.179,11.658,0.544,0.000,34.685
14614,4.103,0.000,2.995,0.179,11.658,0.544,0.000,34.676
14632,4.102,0.000,2.995,0.179,11.658,0.544,0.000,34.693
14650,4.102,0.000,2.995,0.179,11.658,0.544,0.000,34.669
14668,4.103,0.000,2.995,0.179,11.658,0.544,0.000,34.677
14686,4.103,0.000,2.995,0.179,11.658,0.544,0.000,34.698
14704,4.103,0.000,2.995,0.179,11.658,0.544,0.000,34.674
14722,4.103,0.000,2.995,0.179,11.658,0.544,0.000,34.649
14740,4.103,0.000,2.995,0.179,11.658,0.544,0.000,34.648
14758,4.103,0.000,2.995,0.179,11.658,0.544,0.000,34.659
14776,4.103,0.000,2.995,0.179,11.658,0.544,0.000,34.662
14794,4.103,0.000,2.995,0.179,11.658,0.544,0.000,34.647
14812,4.103,0.000,2.995,0.179,11.658,0.544,0.000,34.649
14830,4.103,0.000,2.995,0.179,11.658,0.544,0.000,34.687
14848,4.103,0.000,2.995,0.179,11.658,0.544,0.000,34.660
14866,4.103,0.000,2.995,0.179,11.658,0.544,0.000,34.712
14884,4.103,0.000,2.995,0.179,11.658,0.544,0.000,34.665
14902,4.103,0.000,2.995,0.179,11.658,0.544,0.000,34.691
14920,4.103,0.000,2.995,0.179,11.658,0.544,0.000,34.636
14938,4.103,0.000,2.995,0.179,11.658,0.544,0.000,34.681
14956,4.103,0.000,2.995,0.179,11.658,0.544,0.000,34.634
14974,4.103,0.000,2.995,0.179,11.658,0.544,0.000,34.642
14992,4.103,0.000,2.995,0.179,11.658,0.544,0.000,34.631
15010,4.102,0.000,2.995,0.179,11.658,0.544,0.000,34.646
15028,4.103,0.000,2.995,0.179,11.658,0.544,0.000,34.593
15046,4.103,0.000,2.995,0.179,11.658,0.544,0.000,34.627
15064,4.103,0.000,2.995,0.179,11.658,0.544,0.000,34.670
15082,4.103,0.000,2.995,0.179,11.658,0.544,0.000,34.647
15100,4.103,0.000,2.995,0.179,11.658,0.544,0.000,34.689
15118,4.103,0.000,2.995,0.179,11.658,0.544,0.000,34.658
15136,4.103,0.000,2.995,0.179,11.658,0.544,0.000,34.650
15154,4.103,0.000,2.995,0.179,11.658,0.544,0.000,34.641
15172,4.103,0.000,2.995,0.179,11.658,0.544,0.000,34.684
15190,4.103,0.000,2.995,0.179,11.658,0.544,0.000,34.680
15208,4.103,0.000,2.995,0.179,11.658,0.544,0.000,34.658
15226,4.103,0.000,2.995,0.179,11.658,0.544,0.000,34.636
15244,4.103,0.000,2.995,0.179,11.658,0.544,0.000,34.659
15262,4.103,0.000,2.995,0.179,11.658,0.544,0.000,34.706
15280,4.103,0.000,2.995,0.179,11.658,0.544,0.000,34.647
15298,4.103,0.000,2.995,0.179,11.658,0.544,0.000,34.661
15316,4.103,0.000,2.995,0.179,11.658,0.544,0.000,34.616
15334,4.103,0.000,2.995,0.179,11.658,0.544,0.000,34.673
15352,4.103,0.000,2.995,0.179,11.658,0.544,0.000,34.651
15370,4.103,0.000,2.995,0.179,11.658,0.544,0.000,34.649
15388,4.103,0.000,2.995,0.179,11.658,0.544,0.000,34.664
15406,4.103,0.000,2.995,0.179,11.658,0.544,0.000,34.665
15424,4.103,0.000,2.995,0.179,11.658,0.544,0.000,34.655
15442,4.103,0.000,2.995,0.179,11.658,0.544,0.000,34.640
15460,4.103,0.000,2.995,0.179,11.658,0.544,0.000,34.649
15478,4.103,0.000,2.995,0.179,11.658,0.544,0.000,34.625
15496,4.103,0.000,2.995,0.179,11.658,0.544,0.000,34.643
15514,4.103,0.000,2.995,0.179,11.658,0.544,0.000,34.652
15532,4.103,0.000,2.995,0.179,11.658,0.544,0.000,34.612
15550,4.103,0.000,2.995,0.179,11.658,0.544,0.000,34.648
15568,4.103,0.000,2.995,0.179,11.658,0.544,0.000,34.616
15586,4.103,0.000,2.995,0.179,11.658,0.544,0.000,34.642
15604,4.103,0.000,2.995,0.179,11.658,0.544,0.000,34.680
15622,4.103,0.000,2.995,0.179,11.658,0.544,0.000,34.648
15640,4.103,0.000,2.995,0.179,11.658,0.544,0.000,34.678
15658,4.103,0.000,2.995,0.179,11.658,0.544,0.000,34.682
15676,4.103,0.000,2.995,0.179,11.658,0.544,0.000,34.658
15694,4.103,0.000,2.995,0.179,11.658,0.544,0.000,34.671
15712,4.103,0.000,2.995,0.179,11.658,0.544,0.000,34.633
15730,4.103,0.000,2.995,0.179,11.658,0.544,0.000,34.676
15748,4.103,0.000,2.995,0.179,11.658,0.544,0.000,34.673
15766,4.103,0.000,2.995,0.179,11.658,0.544,0.000,34.676
15784,4.103,0.000,2.995,0.179,11.658,0.544,0.000,34.646
15802,4.103,0.000,2.995,0.179,11.658,0.544,0.000,34.685
15820,4.103,0.000,2.995,0.179,11.658,0.544,0.000,34.634
15838,4.103,0.000,2.995,0.179,11.658,0.544,0.000,34.659
15856,4.103,0.000,2.995,0.179,11.658,0.544,0.000,34.685
15874,4.103,0.000,2.995,0.179,11.658,0.544,0.000,34.652
15892,4.103,0.000,2.995,0.179,11.658,0.544,0.000,34.671
15910,4.103,0.000,2.995,0.179,11.658,0.544,0.000,34.680
15928,4.103,0.000,2.995,0.179,11.658,0.544,0.000,34.638
15946,4.103,0.000,2.995,0.179,11.658,0.544,0.000,34.664
15964,4.103,0.000,2.995,0.179,11.658,0.544,0.000,34.700
15982,4.103,0.000,2.995,0.179,11.658,0.544,0.000,34.644
16000,4.103,0.000,2.995,0.179,11.658,0.544,0.000,34.628
16018,4.103,0.000,2.995,0.179,11.658,0.544,0.000,34.720
16036,4.103,0.000,2.995,0.179,11.658,0.544,0.000,34.727
16054,4.103,0.000,2.995,0.179,11.658,0.544,0.000,34.706
16072,4.103,0.000,2.995,0.179,11.658,0.544,0.000,34.671
16090,4.103,0.000,2.995,0.179,11.658,0.544,0.000,34.648
16108,4.103,0.000,2.995,0.179,11.658,0.544,0.000,34.673
16126,4.103,0.000,2.995,0.179,11.658,0.544,0.000,34.663
16144,4.103,0.000,2.995,0.179,11.658,0.544,0.000,34.653
16162,4.103,0.000,2.995,0.179,11.658,0.544,0.000,34.649
16180,4.103,0.000,2.995,0.179,11.658,0.544,0.000,34.711
16198,4.103,0.000,2.995,0.179,11.658,0.544,0.000,34.659
16216,4.103,0.000,2.995,0.179,11.658,0.544,0.000,34.663
16234,4.103,0.000,2.995,0.179,11.658,0.544,0.000,34.669
16252,4.103,0.000,2.995,0.179,11.658,0.544,0.000,34.660
16270,4.103,0.000,2.995,0.179,11.658,0.544,0.000,34.694
16288,4.103,0.000,2.995,0.179,11.658,0.544,0.000,34.703
16306,4.103,0.000,2.995,0.179,11.658,0.544,0.000,34.683
16319,4.103,0.000,2.995,0.179,11.658,0.544,0.000,34.674