File: data/T35/5C/2.csv
time_s,voltage_v,current_a,chargecapacity_ah,dischargecapacity_ah,charge_energy_wh,discharge_energy_wh,voltagedot_v_per_s,temp_degc
1,3.410,0.000,0.000,0.000,0.000,0.000,0.000,34.696
19,3.410,0.000,0.000,0.000,0.000,0.000,0.000,34.654
37,3.410,0.000,0.000,0.000,0.000,0.000,0.000,34.656
55,3.410,0.000,0.000,0.000,0.000,0.000,0.000,34.655
72,3.542,1.625,0.005,0.000,0.019,0.000,0.001,34.723
90,3.554,1.625,0.014,0.000,0.048,0.000,0.001,34.708
108,3.562,1.625,0.022,0.000,0.077,0.000,0.000,34.790
126,3.568,1.625,0.030,0.000,0.106,0.000,0.000,34.775
144,3.574,1.625,0.038,0.000,0.135,0.000,0.000,34.847
162,3.579,1.625,0.046,0.000,0.164,0.000,0.000,34.853
180,3.583,1.625,0.054,0.000,0.193,0.000,0.000,34.879
198,3.587,1.625,0.062,0.000,0.222,0.000,0.000,34.918
216,3.591,1.625,0.070,0.000,0.251,0.000,0.000,34.928
234,3.595,1.625,0.079,0.000,0.281,0.000,0.000,35.011
252,3.598,1.625,0.087,0.000,0.310,0.000,0.000,34.988
270,3.602,1.625,0.095,0.000,0.339,0.000,0.000,34.993
288,3.605,1.625,0.103,0.000,0.368,0.000,0.000,35.027
306,3.608,1.625,0.111,0.000,0.398,0.000,0.000,35.042
324,3.611,1.625,0.119,0.000,0.427,0.000,0.000,35.089
342,3.614,1.625,0.127,0.000,0.456,0.000,0.000,35.093
360,3.617,1.625,0.135,0.000,0.486,0.000,0.000,35.100
378,3.619,1.625,0.144,0.000,0.515,0.000,0.000,35.084
396,3.622,1.625,0.152,0.000,0.544,0.000,0.000,35.115
414,3.624,1.625,0.160,0.000,0.574,0.000,0.000,35.131
432,3.626,1.625,0.168,0.000,0.603,0.000,0.000,35.132
450,3.629,1.625,0.176,0.000,0.633,0.000,0.000,35.141
468,3.631,1.625,0.184,0.000,0.662,0.000,0.000,35.183
486,3.633,1.625,0.192,0.000,0.692,0.000,0.000,35.197
504,3.635,1.625,0.200,0.000,0.721,0.000,0.000,35.178
522,3.637,1.625,0.209,0.000,0.751,0.000,0.000,35.196
540,3.638,1.625,0.217,0.000,0.780,0.000,0.000,35.208
558,3.640,1.625,0.225,0.000,0.810,0.000,0.000,35.238
576,3.642,1.625,0.233,0.000,0.840,0.000,0.000,35.206
594,3.644,1.625,0.241,0.000,0.869,0.000,0.000,35.287
612,3.645,1.625,0.249,0.000,0.899,0.000,0.000,35.263
630,3.647,1.625,0.257,0.000,0.929,0.000,0.000,35.256
648,3.649,1.625,0.265,0.000,0.958,0.000,0.000,35.249
666,3.650,1.625,0.274,0.000,0.988,0.000,0.000,35.270
684,3.652,1.625,0.282,0.000,1.017,0.000,0.000,35.292
702,3.654,1.625,0.290,0.000,1.047,0.000,0.000,35.323
720,3.655,1.625,0.298,0.000,1.077,0.000,0.000,35.330
738,3.657,1.625,0.306,0.000,1.107,0.000,0.000,35.367
756,3.659,1.625,0.314,0.000,1.136,0.000,0.000,35.319
774,3.660,1.625,0.322,0.000,1.166,0.000,0.000,35.305
792,3.662,1.625,0.330,0.000,1.196,0.000,0.000,35.328
810,3.664,1.625,0.339,0.000,1.226,0.000,0.000,35.370
828,3.665,1.625,0.347,0.000,1.255,0.000,0.000,35.356
846,3.667,1.625,0.355,0.000,1.285,0.000,0.000,35.365
864,3.669,1.625,0.363,0.000,1.315,0.000,0.000,35.349
882,3.670,1.625,0.371,0.000,1.345,0.000,0.000,35.382
900,3.672,1.625,0.379,0.000,1.375,0.000,0.000,35.394
918,3.674,1.625,0.387,0.000,1.404,0.000,0.000,35.418
936,3.675,1.625,0.395,0.000,1.434,0.000,0.000,35.407
954,3.677,1.625,0.404,0.000,1.464,0.000,0.000,35.413
972,3.679,1.625,0.412,0.000,1.494,0.000,0.000,35.459
990,3.680,1.625,0.420,0.000,1.524,0.000,0.000,35.459
1008,3.682,1.625,0.428,0.000,1.554,0.000,0.000,35.475
1026,3.684,1.625,0.436,0.000,1.584,0.000,0.000,35.479
1044,3.685,1.625,0.444,0.000,1.614,0.000,0.000,35.502
1062,3.687,1.625,0.452,0.000,1.644,0.000,0.000,35.503
1080,3.689,1.625,0.460,0.000,1.674,0.000,0.000,35.512
1098,3.690,1.625,0.469,0.000,1.704,0.000,0.000,35.518
1116,3.692,1.625,0.477,0.000,1.734,0.000,0.000,35.508
1134,3.694,1.625,0.485,0.000,1.764,0.000,0.000,35.528
1152,3.696,1.625,0.493,0.000,1.794,0.000,0.000,35.507
1170,3.697,1.625,0.501,0.000,1.824,0.000,0.000,35.558
1188,3.699,1.625,0.509,0.000,1.854,0.000,0.000,35.512
1206,3.701,1.625,0.517,0.000,1.884,0.000,0.000,35.501
1224,3.702,1.625,0.525,0.000,1.914,0.000,0.000,35.560
1242,3.704,1.625,0.534,0.000,1.944,0.000,0.000,35.589
1260,3.706,1.625,0.542,0.000,1.974,0.000,0.000,35.568
1278,3.707,1.625,0.550,0.000,2.004,0.000,0.000,35.606
1296,3.709,1.625,0.558,0.000,2.034,0.000,0.000,35.548
1314,3.711,1.625,0.566,0.000,2.064,0.000,0.000,35.626
1332,3.712,1.625,0.574,0.000,2.095,0.000,0.000,35.582
1350,3.714,1.625,0.582,0.000,2.125,0.000,0.000,35.572
1368,3.716,1.625,0.590,0.000,2.155,0.000,0.000,35.626
1386,3.718,1.625,0.599,0.000,2.185,0.000,0.000,35.579
1404,3.719,1.625,0.607,0.000,2.215,0.000,0.000,35.568
1422,3.721,1.625,0.615,0.000,2.246,0.000,0.000,35.636
1440,3.723,1.625,0.623,0.000,2.276,0.000,0.000,35.610
1458,3.724,1.625,0.631,0.000,2.306,0.000,0.000,35.635
1476,3.726,1.625,0.639,0.000,2.336,0.000,0.000,35.625
1494,3.728,1.625,0.647,0.000,2.367,0.000,0.000,35.690
1512,3.729,1.625,0.655,0.000,2.397,0.000,0.000,35.656
1530,3.731,1.625,0.664,0.000,2.427,0.000,0.000,35.698
1548,3.733,1.625,0.672,0.000,2.458,0.000,0.000,35.735
1566,3.734,1.625,0.680,0.000,2.488,0.000,0.000,35.706
1584,3.736,1.625,0.688,0.000,2.518,0.000,0.000,35.684
1602,3.738,1.625,0.696,0.000,2.549,0.000,0.000,35.707
1620,3.739,1.625,0.704,0.000,2.579,0.000,0.000,35.695
1638,3.741,1.625,0.712,0.000,2.609,0.000,0.000,35.764
1656,3.742,1.625,0.720,0.000,2.640,0.000,0.000,35.747
1674,3.744,1.625,0.729,0.000,2.670,0.000,0.000,35.778
1692,3.745,1.625,0.737,0.000,2.701,0.000,0.000,35.702
1710,3.747,1.625,0.745,0.000,2.731,0.000,0.000,35.720
1728,3.748,1.625,0.753,0.000,2.762,0.000,0.000,35.731
1746,3.750,1.625,0.761,0.000,2.792,0.000,0.000,35.750
1764,3.751,1.625,0.769,0.000,2.822,0.000,0.000,35.769
1782,3.753,1.625,0.777,0.000,2.853,0.000,0.000,35.779
1800,3.754,1.625,0.785,0.000,2.883,0.000,0.000,35.782
1818,3.756,1.625,0.794,0.000,2.914,0.000,0.000,35.813
1836,3.757,1.625,0.802,0.000,2.944,0.000,0.000,35.774
1854,3.759,1.625,0.810,0.000,2.975,0.000,0.000,35.737
1872,3.760,1.625,0.818,0.000,3.006,0.000,0.000,35.776
1890,3.762,1.625,0.826,0.000,3.036,0.000,0.000,35.776
1908,3.763,1.625,0.834,0.000,3.067,0.000,0.000,35.813
1926,3.765,1.625,0.842,0.000,3.097,0.000,0.000,35.802
1944,3.766,1.625,0.850,0.000,3.128,0.000,0.000,35.744
1962,3.768,1.625,0.859,0.000,3.158,0.000,0.000,35.786
1980,3.769,1.625,0.867,0.000,3.189,0.000,0.000,35.768
1998,3.771,1.625,0.875,0.000,3.220,0.000,0.000,35.813
2016,3.772,1.625,0.883,0.000,3.250,0.000,0.000,35.803
2034,3.774,1.625,0.891,0.000,3.281,0.000,0.000,35.780
2052,3.775,1.625,0.899,0.000,3.312,0.000,0.000,35.779
2070,3.777,1.625,0.907,0.000,3.342,0.000,0.000,35.830
2088,3.778,1.625,0.916,0.000,3.373,0.000,0.000,35.804
2106,3.780,1.625,0.924,0.000,3.404,0.000,0.000,35.813
2124,3.781,1.625,0.932,0.000,3.435,0.000,0.000,35.833
2142,3.783,1.625,0.940,0.000,3.465,0.000,0.000,35.796
2160,3.785,1.625,0.948,0.000,3.496,0.000,0.000,35.842
2178,3.786,1.625,0.956,0.000,3.527,0.000,0.000,35.796
2196,3.788,1.625,0.964,0.000,3.558,0.000,0.000,35.826
2214,3.789,1.625,0.972,0.000,3.588,0.000,0.000,35.815
2232,3.791,1.625,0.981,0.000,3.619,0.000,0.000,35.808
2250,3.793,1.625,0.989,0.000,3.650,0.000,0.000,35.826
2268,3.794,1.625,0.997,0.000,3.681,0.000,0.000,35.832
2286,3.796,1.625,1.005,0.000,3.712,0.000,0.000,35.827
2304,3.798,1.625,1.013,0.000,3.742,0.000,0.000,35.791
2322,3.800,1.625,1.021,0.000,3.773,0.000,0.000,35.811
2340,3.801,1.625,1.029,0.000,3.804,0.000,0.000,35.789
2358,3.803,1.625,1.037,0.000,3.835,0.000,0.000,35.841
2376,3.805,1.625,1.046,0.000,3.866,0.000,0.000,35.800
2394,3.806,1.625,1.054,0.000,3.897,0.000,0.000,35.830
2412,3.808,1.625,1.062,0.000,3.928,0.000,0.000,35.817
2430,3.810,1.625,1.070,0.000,3.959,0.000,0.000,35.779
2448,3.812,1.625,1.078,0.000,3.990,0.000,0.000,35.827
2466,3.813,1.625,1.086,0.000,4.021,0.000,0.000,35.839
2484,3.815,1.625,1.094,0.000,4.052,0.000,0.000,35.791
2502,3.817,1.625,1.102,0.000,4.083,0.000,0.000,35.805
2520,3.819,1.625,1.111,0.000,4.114,0.000,0.000,35.804
2538,3.821,1.625,1.119,0.000,4.145,0.000,0.000,35.842
2556,3.823,1.625,1.127,0.000,4.176,0.000,0.000,35.812
2574,3.825,1.625,1.135,0.000,4.207,0.000,0.000,35.858
2592,3.826,1.625,1.143,0.000,4.238,0.000,0.000,35.804
2610,3.828,1.625,1.151,0.000,4.269,0.000,0.000,35.821
2628,3.830,1.625,1.159,0.000,4.300,0.000,0.000,35.849
2646,3.832,1.625,1.167,0.000,4.331,0.000,0.000,35.882
2664,3.834,1.625,1.176,0.000,4.363,0.000,0.000,35.848
2682,3.836,1.625,1.184,0.000,4.394,0.000,0.000,35.854
2700,3.838,1.625,1.192,0.000,4.425,0.000,0.000,35.830
2718,3.840,1.625,1.200,0.000,4.456,0.000,0.000,35.844
2736,3.842,1.625,1.208,0.000,4.487,0.000,0.000,35.880
2754,3.844,1.625,1.216,0.000,4.519,0.000,0.000,35.880
2772,3.846,1.625,1.224,0.000,4.550,0.000,0.000,35.847
2790,3.848,1.625,1.232,0.000,4.581,0.000,0.000,35.851
2808,3.851,1.625,1.241,0.000,4.612,0.000,0.000,35.840
2826,3.853,1.625,1.249,0.000,4.644,0.000,0.000,35.857
2844,3.855,1.625,1.257,0.000,4.675,0.000,0.000,35.809
2862,3.857,1.625,1.265,0.000,4.706,0.000,0.000,35.866
2880,3.859,1.625,1.273,0.000,4.738,0.000,0.000,35.857
2898,3.861,1.625,1.281,0.000,4.769,0.000,0.000,35.878
2916,3.863,1.625,1.289,0.000,4.800,0.000,0.000,35.806
2934,3.866,1.625,1.297,0.000,4.832,0.000,0.000,35.821
2952,3.868,1.625,1.306,0.000,4.863,0.000,0.000,35.848
2970,3.870,1.625,1.314,0.000,4.895,0.000,0.000,35.869
2988,3.872,1.625,1.322,0.000,4.926,0.000,0.000,35.815
3006,3.874,1.625,1.330,0.000,4.958,0.000,0.000,35.853
3024,3.877,1.625,1.338,0.000,4.989,0.000,0.000,35.816
3042,3.879,1.625,1.346,0.000,5.021,0.000,0.000,35.812
3060,3.881,1.625,1.354,0.000,5.052,0.000,0.000,35.828
3078,3.884,1.625,1.362,0.000,5.084,0.000,0.000,35.861
3096,3.886,1.625,1.371,0.000,5.115,0.000,0.000,35.808
3114,3.888,1.625,1.379,0.000,5.147,0.000,0.000,35.857
3132,3.890,1.625,1.387,0.000,5.178,0.000,0.000,35.867
3150,3.893,1.625,1.395,0.000,5.210,0.000,0.000,35.848
3168,3.895,1.625,1.403,0.000,5.242,0.000,0.000,35.847
3186,3.897,1.625,1.411,0.000,5.273,0.000,0.000,35.810
3204,3.900,1.625,1.419,0.000,5.305,0.000,0.000,35.811
3222,3.902,1.625,1.427,0.000,5.337,0.000,0.000,35.888
3240,3.904,1.625,1.436,0.000,5.368,0.000,0.000,35.870
3258,3.907,1.625,1.444,0.000,5.400,0.000,0.000,35.831
3276,3.909,1.625,1.452,0.000,5.432,0.000,0.000,35.810
3294,3.912,1.625,1.460,0.000,5.464,0.000,0.000,35.824
3312,3.914,1.625,1.468,0.000,5.495,0.000,0.000,35.850
3330,3.916,1.625,1.476,0.000,5.527,0.000,0.000,35.821
3348,3.919,1.625,1.484,0.000,5.559,0.000,0.000,35.817
3366,3.921,1.625,1.492,0.000,5.591,0.000,0.000,35.818
3384,3.923,1.625,1.501,0.000,5.623,0.000,0.000,35.847
3402,3.926,1.625,1.509,0.000,5.655,0.000,0.000,35.823
3420,3.928,1.625,1.517,0.000,5.687,0.000,0.000,35.838
3438,3.931,1.625,1.525,0.000,5.719,0.000,0.000,35.812
3456,3.933,1.625,1.533,0.000,5.750,0.000,0.000,35.831
3474,3.935,1.625,1.541,0.000,5.782,0.000,0.000,35.829
3492,3.938,1.625,1.549,0.000,5.814,0.000,0.000,35.801
3510,3.940,1.625,1.557,0.000,5.846,0.000,0.000,35.804
3528,3.943,1.625,1.566,0.000,5.878,0.000,0.000,35.760
3546,3.945,1.625,1.574,0.000,5.911,0.000,0.000,35.750
3564,3.947,1.625,1.582,0.000,5.943,0.000,0.000,35.773
3582,3.950,1.625,1.590,0.000,5.975,0.000,0.000,35.837
3600,3.952,1.625,1.598,0.000,6.007,0.000,0.000,35.776
3618,3.955,1.625,1.606,0.000,6.039,0.000,0.000,35.817
3636,3.957,1.625,1.614,0.000,6.071,0.000,0.000,35.779
3654,3.959,1.625,1.622,0.000,6.103,0.000,0.000,35.733
3672,3.962,1.625,1.631,0.000,6.135,0.000,0.000,35.761
3690,3.964,1.625,1.639,0.000,6.168,0.000,0.000,35.770
3708,3.966,1.625,1.647,0.000,6.200,0.000,0.000,35.784
3726,3.969,1.625,1.655,0.000,6.232,0.000,0.000,35.737
3744,3.971,1.625,1.663,0.000,6.264,0.000,0.000,35.793
3762,3.974,1.625,1.671,0.000,6.297,0.000,0.000,35.775
3780,3.976,1.625,1.679,0.000,6.329,0.000,0.000,35.718
3798,3.978,1.625,1.687,0.000,6.361,0.000,0.000,35.767
3816,3.981,1.625,1.696,0.000,6.394,0.000,0.000,35.724
3834,3.983,1.625,1.704,0.000,6.426,0.000,0.000,35.745
3852,3.985,1.625,1.712,0.000,6.458,0.000,0.000,35.733
3870,3.988,1.625,1.720,0.000,6.491,0.000,0.000,35.777
3888,3.990,1.625,1.728,0.000,6.523,0.000,0.000,35.726
3906,3.992,1.625,1.736,0.000,6.556,0.000,0.000,35.726
3924,3.995,1.625,1.744,0.000,6.588,0.000,0.000,35.760
3942,3.997,1.625,1.752,0.000,6.620,0.000,0.000,35.742
3960,3.999,1.625,1.761,0.000,6.653,0.000,0.000,35.702
3978,4.002,1.625,1.769,0.000,6.685,0.000,0.000,35.712
3996,4.004,1.625,1.777,0.000,6.718,0.000,0.000,35.702
4014,4.006,1.625,1.785,0.000,6.750,0.000,0.000,35.718
4032,4.009,1.625,1.793,0.000,6.783,0.000,0.000,35.726
4050,4.011,1.625,1.801,0.000,6.816,0.000,0.000,35.711
4068,4.013,1.625,1.809,0.000,6.848,0.000,0.000,35.701
4086,4.015,1.625,1.817,0.000,6.881,0.000,0.000,35.714
4104,4.018,1.625,1.826,0.000,6.913,0.000,0.000,35.696
4122,4.020,1.625,1.834,0.000,6.946,0.000,0.000,35.714
4140,4.022,1.625,1.842,0.000,6.979,0.000,0.000,35.720
4158,4.025,1.625,1.850,0.000,7.012,0.000,0.000,35.692
4176,4.027,1.625,1.858,0.000,7.044,0.000,0.000,35.726
4194,4.029,1.625,1.866,0.000,7.077,0.000,0.000,35.665
4212,4.031,1.625,1.874,0.000,7.110,0.000,0.000,35.686
4230,4.034,1.625,1.882,0.000,7.142,0.000,0.000,35.686
4248,4.036,1.625,1.891,0.000,7.175,0.000,0.000,35.741
4266,4.038,1.625,1.899,0.000,7.208,0.000,0.000,35.707
4284,4.041,1.625,1.907,0.000,7.241,0.000,0.000,35.689
4302,4.043,1.625,1.915,0.000,7.274,0.000,0.000,35.659
4320,4.046,1.625,1.923,0.000,7.307,0.000,0.000,35.684
4338,4.048,1.625,1.931,0.000,7.339,0.000,0.000,35.698
4356,4.050,1.625,1.939,0.000,7.372,0.000,0.000,35.656
4374,4.052,1.625,1.947,0.000,7.405,0.000,0.000,35.686
4392,4.055,1.625,1.956,0.000,7.438,0.000,0.000,35.715
4410,4.057,1.625,1.964,0.000,7.471,0.000,0.000,35.727
4428,4.060,1.625,1.972,0.000,7.504,0.000,0.000,35.658
4446,4.062,1.625,1.980,0.000,7.537,0.000,0.000,35.703
4464,4.065,1.625,1.988,0.000,7.570,0.000,0.000,35.706
4482,4.067,1.625,1.996,0.000,7.603,0.000,0.000,35.705
4500,4.070,1.625,2.004,0.000,7.636,0.000,0.000,35.697
4518,4.072,1.625,2.012,0.000,7.669,0.000,0.000,35.702
4536,4.074,1.625,2.021,0.000,7.702,0.000,0.000,35.715
4554,4.077,1.625,2.029,0.000,7.736,0.000,0.000,35.774
4572,4.080,1.625,2.037,0.000,7.769,0.000,0.000,35.792
4590,4.082,1.625,2.045,0.000,7.802,0.000,0.000,35.715
4608,4.085,1.625,2.053,0.000,7.835,0.000,0.000,35.747
4626,4.087,1.625,2.061,0.000,7.868,0.000,0.000,35.753
4644,4.090,1.625,2.069,0.000,7.902,0.000,0.000,35.741
4662,4.093,1.625,2.077,0.000,7.935,0.000,0.000,35.760
4680,4.096,1.625,2.086,0.000,7.968,0.000,0.000,35.712
4698,4.098,1.625,2.094,0.000,8.001,0.000,0.000,35.722
4716,4.101,1.625,2.102,0.000,8.035,0.000,0.000,35.744
4734,4.104,1.625,2.110,0.000,8.068,0.000,0.000,35.753
4752,4.107,1.625,2.118,0.000,8.101,0.000,0.000,35.775
4770,4.109,1.625,2.126,0.000,8.135,0.000,0.000,35.803
4788,4.112,1.625,2.134,0.000,8.168,0.000,0.000,35.763
4806,4.115,1.625,2.142,0.000,8.202,0.000,0.000,35.770
4824,4.118,1.625,2.151,0.000,8.235,0.000,0.000,35.759
4842,4.121,1.625,2.159,0.000,8.268,0.000,0.000,35.703
4860,4.124,1.625,2.167,0.000,8.302,0.000,0.000,35.763
4878,4.127,1.625,2.175,0.000,8.335,0.000,0.000,35.727
4896,4.130,1.625,2.183,0.000,8.369,0.000,0.000,35.740
4914,4.133,1.625,2.191,0.000,8.403,0.000,0.000,35.786
4932,4.136,1.625,2.199,0.000,8.436,0.000,0.000,35.790
4950,4.139,1.625,2.207,0.000,8.470,0.000,0.000,35.788
4968,4.143,1.625,2.216,0.000,8.503,0.000,0.000,35.803
4986,4.146,1.625,2.224,0.000,8.537,0.000,0.000,35.786
5004,4.149,1.625,2.232,0.000,8.571,0.000,0.000,35.770
5022,4.152,1.625,2.240,0.000,8.605,0.000,0.000,35.817
5040,4.155,1.625,2.248,0.000,8.638,0.000,0.000,35.796
5058,4.158,1.625,2.256,0.000,8.672,0.000,0.000,35.777
5076,4.162,1.625,2.264,0.000,8.706,0.000,0.000,35.824
5094,4.165,1.625,2.272,0.000,8.740,0.000,0.000,35.817
5112,4.168,1.625,2.281,0.000,8.774,0.000,0.000,35.817
5130,4.172,1.625,2.289,0.000,8.807,0.000,0.000,35.836
5148,4.175,1.625,2.297,0.000,8.841,0.000,0.000,35.847
5166,4.178,1.625,2.305,0.000,8.875,0.000,0.000,35.864
5184,4.181,1.625,2.313,0.000,8.909,0.000,0.000,35.837
5202,4.185,1.625,2.321,0.000,8.943,0.000,0.000,35.830
5220,4.188,1.625,2.329,0.000,8.977,0.000,0.000,35.830
5238,4.192,1.625,2.338,0.000,9.011,0.000,0.000,35.863
5256,4.195,1.625,2.346,0.000,9.045,0.000,0.000,35.869
5274,4.198,1.625,2.354,0.000,9.079,0.000,0.000,35.894
5291,4.200,1.603,2.362,0.000,9.112,0.000,0.000,35.877
5309,4.200,1.559,2.369,0.000,9.146,0.000,0.000,35.879
5327,4.200,1.522,2.377,0.000,9.178,0.000,0.000,35.881
5345,4.200,1.488,2.385,0.000,9.209,0.000,0.000,35.848
5363,4.200,1.458,2.392,0.000,9.240,0.000,0.000,35.848
5381,4.200,1.428,2.399,0.000,9.271,0.000,0.000,35.872
5399,4.200,1.399,2.406,0.000,9.300,0.000,0.000,35.855
5417,4.200,1.374,2.413,0.000,9.329,0.000,0.000,35.843
5435,4.200,1.348,2.420,0.000,9.358,0.000,0.000,35.835
5453,4.200,1.323,2.427,0.000,9.386,0.000,0.000,35.827
5471,4.200,1.299,2.433,0.000,9.414,0.000,0.000,35.803
5489,4.200,1.277,2.440,0.000,9.441,0.000,0.000,35.775
5507,4.200,1.254,2.446,0.000,9.467,0.000,0.000,35.783
5525,4.200,1.233,2.452,0.000,9.493,0.000,0.000,35.754
5543,4.200,1.211,2.458,0.000,9.519,0.000,0.000,35.744
5561,4.200,1.191,2.464,0.000,9.544,0.000,0.000,35.716
5579,4.200,1.171,2.470,0.000,9.569,0.000,0.000,35.681
5597,4.200,1.152,2.476,0.000,9.593,0.000,0.000,35.638
5615,4.200,1.133,2.482,0.000,9.617,0.000,0.000,35.697
5633,4.200,1.115,2.487,0.000,9.641,0.000,0.000,35.656
5651,4.200,1.097,2.493,0.000,9.664,0.000,0.000,35.657
5669,4.200,1.080,2.498,0.000,9.687,0.000,0.000,35.636
5687,4.200,1.062,2.504,0.000,9.709,0.000,0.000,35.574
5705,4.200,1.046,2.509,0.000,9.732,0.000,0.000,35.584
5723,4.200,1.031,2.514,0.000,9.753,0.000,0.000,35.581
5741,4.200,1.016,2.519,0.000,9.775,0.000,0.000,35.545
5759,4.200,1.001,2.524,0.000,9.796,0.000,0.000,35.576
5777,4.200,0.986,2.529,0.000,9.817,0.000,0.000,35.499
5795,4.200,0.971,2.534,0.000,9.837,0.000,0.000,35.545
5813,4.200,0.957,2.539,0.000,9.858,0.000,0.000,35.470
5831,4.200,0.944,2.544,0.000,9.878,0.000,0.000,35.463
5849,4.200,0.930,2.548,0.000,9.897,0.000,0.000,35.442
5867,4.200,0.917,2.553,0.000,9.917,0.000,0.000,35.450
5885,4.200,0.904,2.558,0.000,9.936,0.000,0.000,35.415
5903,4.200,0.892,2.562,0.000,9.955,0.000,0.000,35.413
5921,4.200,0.878,2.567,0.000,9.973,0.000,0.000,35.389
5939,4.200,0.867,2.571,0.000,9.992,0.000,0.000,35.370
5957,4.200,0.856,2.575,0.000,10.010,0.000,0.000,35.325
5975,4.200,0.843,2.579,0.000,10.028,0.000,0.000,35.369
5993,4.200,0.832,2.584,0.000,10.045,0.000,0.000,35.329
6011,4.200,0.821,2.588,0.000,10.062,0.000,0.000,35.312
6029,4.200,0.809,2.592,0.000,10.080,0.000,0.000,35.295
6047,4.200,0.798,2.596,0.000,10.096,0.000,0.000,35.267
6065,4.200,0.788,2.600,0.000,10.113,0.000,0.000,35.257
6083,4.200,0.777,2.604,0.000,10.130,0.000,0.000,35.247
6101,4.200,0.767,2.608,0.000,10.146,0.000,0.000,35.250
6119,4.200,0.757,2.611,0.000,10.162,0.000,0.000,35.235
6137,4.200,0.745,2.615,0.000,10.178,0.000,0.000,35.202
6155,4.200,0.736,2.619,0.000,10.193,0.000,0.000,35.206
6173,4.200,0.726,2.623,0.000,10.208,0.000,0.000,35.164
6191,4.200,0.715,2.626,0.000,10.224,0.000,0.000,35.188
6209,4.200,0.706,2.630,0.000,10.238,0.000,0.000,35.229
6227,4.200,0.696,2.633,0.000,10.253,0.000,0.000,35.166
6245,4.200,0.687,2.637,0.000,10.268,0.000,0.000,35.134
6263,4.200,0.678,2.640,0.000,10.282,0.000,0.000,35.181
6281,4.200,0.668,2.643,0.000,10.296,0.000,0.000,35.110
6299,4.200,0.658,2.647,0.000,10.310,0.000,0.000,35.193
6317,4.200,0.650,2.650,0.000,10.324,0.000,0.000,35.118
6335,4.200,0.640,2.653,0.000,10.337,0.000,0.000,35.097
6353,4.200,0.632,2.656,0.000,10.351,0.000,0.000,35.103
6371,4.200,0.622,2.660,0.000,10.364,0.000,0.000,35.078
6389,4.200,0.614,2.663,0.000,10.377,0.000,0.000,35.079
6407,4.200,0.605,2.666,0.000,10.390,0.000,0.000,35.060
6425,4.200,0.597,2.669,0.000,10.402,0.000,0.000,35.052
6443,4.200,0.588,2.672,0.000,10.415,0.000,0.000,35.059
6461,4.200,0.580,2.675,0.000,10.427,0.000,0.000,35.060
6479,4.200,0.571,2.677,0.000,10.439,0.000,0.000,35.042
6497,4.200,0.563,2.680,0.000,10.451,0.000,0.000,35.026
6515,4.200,0.554,2.683,0.000,10.463,0.000,0.000,35.076
6533,4.200,0.546,2.686,0.000,10.474,0.000,0.000,34.990
6551,4.200,0.537,2.689,0.000,10.486,0.000,0.000,35.007
6569,4.200,0.529,2.691,0.000,10.497,0.000,0.000,35.019
6587,4.200,0.521,2.694,0.000,10.508,0.000,0.000,35.014
6605,4.200,0.514,2.696,0.000,10.519,0.000,0.000,34.970
6623,4.200,0.506,2.699,0.000,10.529,0.000,0.000,34.981
6641,4.200,0.499,2.701,0.000,10.540,0.000,0.000,34.977
6659,4.200,0.491,2.704,0.000,10.550,0.000,0.000,34.932
6677,4.200,0.483,2.706,0.000,10.560,0.000,0.000,34.964
6695,4.200,0.476,2.709,0.000,10.571,0.000,0.000,34.933
6713,4.200,0.469,2.711,0.000,10.580,0.000,0.000,34.957
6731,4.200,0.461,2.713,0.000,10.590,0.000,0.000,34.899
6749,4.200,0.454,2.716,0.000,10.600,0.000,0.000,34.950
6767,4.200,0.447,2.718,0.000,10.609,0.000,0.000,34.957
6785,4.200,0.440,2.720,0.000,10.619,0.000,0.000,34.904
6803,4.200,0.433,2.722,0.000,10.628,0.000,0.000,34.895
6821,4.200,0.425,2.725,0.000,10.637,0.000,0.000,34.910
6839,4.200,0.419,2.727,0.000,10.646,0.000,0.000,34.901
6857,4.200,0.412,2.729,0.000,10.654,0.000,0.000,34.896
6875,4.200,0.405,2.731,0.000,10.663,0.000,0.000,34.885
6893,4.200,0.399,2.733,0.000,10.671,0.000,0.000,34.925
6911,4.200,0.392,2.735,0.000,10.680,0.000,0.000,34.879
6929,4.200,0.387,2.737,0.000,10.688,0.000,0.000,34.891
6947,4.200,0.380,2.739,0.000,10.696,0.000,0.000,34.815
6965,4.200,0.374,2.740,0.000,10.704,0.000,0.000,34.848
6983,4.200,0.368,2.742,0.000,10.712,0.000,0.000,34.848
7001,4.200,0.361,2.744,0.000,10.719,0.000,0.000,34.852
7019,4.200,0.354,2.746,0.000,10.727,0.000,0.000,34.815
7037,4.200,0.349,2.748,0.000,10.734,0.000,0.000,34.818
7055,4.200,0.343,2.749,0.000,10.741,0.000,0.000,34.814
7073,4.200,0.338,2.751,0.000,10.748,0.000,0.000,34.817
7091,4.200,0.331,2.753,0.000,10.755,0.000,0.000,34.854
7109,4.200,0.325,2.754,0.000,10.762,0.000,0.000,34.839
7127,4.200,0.321,2.756,0.000,10.769,0.000,0.000,34.857
7145,4.200,0.314,2.758,0.000,10.776,0.000,0.000,34.818
7163,4.200,0.310,2.759,0.000,10.782,0.000,0.000,34.793
7181,4.200,0.304,2.761,0.000,10.789,0.000,0.000,34.788
7199,4.200,0.299,2.762,0.000,10.795,0.000,0.000,34.819
7217,4.200,0.293,2.764,0.000,10.801,0.000,0.000,34.768
7235,4.200,0.288,2.765,0.000,10.807,0.000,0.000,34.818
7253,4.200,0.283,2.767,0.000,10.813,0.000,0.000,34.810
7271,4.200,0.279,2.768,0.000,10.819,0.000,0.000,34.781
7289,4.200,0.274,2.769,0.000,10.825,0.000,0.000,34.831
7307,4.200,0.269,2.771,0.000,10.831,0.000,0.000,34.748
7325,4.200,0.264,2.772,0.000,10.836,0.000,0.000,34.799
7343,4.200,0.258,2.773,0.000,10.842,0.000,0.000,34.804
7361,4.200,0.255,2.775,0.000,10.847,0.000,0.000,34.730
7379,4.200,0.251,2.776,0.000,10.853,0.000,0.000,34.748
7397,4.200,0.246,2.777,0.000,10.858,0.000,0.000,34.786
7415,4.200,0.242,2.778,0.000,10.863,0.000,0.000,34.702
7433,4.200,0.237,2.780,0.000,10.868,0.000,0.000,34.763
7451,4.200,0.233,2.781,0.000,10.873,0.000,0.000,34.748
7469,4.200,0.229,2.782,0.000,10.878,0.000,0.000,34.766
7487,4.200,0.225,2.783,0.000,10.883,0.000,0.000,34.752
7505,4.200,0.221,2.784,0.000,10.887,0.000,0.000,34.745
7523,4.200,0.217,2.785,0.000,10.892,0.000,0.000,34.754
7541,4.200,0.214,2.786,0.000,10.896,0.000,0.000,34.718
7559,4.200,0.209,2.787,0.000,10.901,0.000,0.000,34.726
7577,4.200,0.206,2.788,0.000,10.905,0.000,0.000,34.741
7595,4.200,0.202,2.789,0.000,10.909,0.000,0.000,34.710
7613,4.200,0.198,2.790,0.000,10.914,0.000,0.000,34.731
7631,4.200,0.195,2.791,0.000,10.918,0.000,0.000,34.699
7649,4.200,0.192,2.792,0.000,10.922,0.000,0.000,34.731
7667,4.200,0.188,2.793,0.000,10.926,0.000,0.000,34.741
7685,4.200,0.185,2.794,0.000,10.930,0.000,0.000,34.725
7703,4.200,0.181,2.795,0.000,10.934,0.000,0.000,34.696
7721,4.200,0.179,2.796,0.000,10.937,0.000,0.000,34.675
7739,4.200,0.175,2.797,0.000,10.941,0.000,0.000,34.736
7757,4.200,0.172,2.798,0.000,10.945,0.000,0.000,34.702
7775,4.200,0.169,2.799,0.000,10.948,0.000,0.000,34.681
7793,4.200,0.165,2.800,0.000,10.952,0.000,0.000,34.721
7811,4.200,0.164,2.800,0.000,10.955,0.000,0.000,34.741
7829,4.200,0.160,2.801,0.000,10.959,0.000,0.000,34.717
7847,4.200,0.158,2.802,0.000,10.962,0.000,0.000,34.727
7865,4.200,0.155,2.803,0.000,10.965,0.000,0.000,34.648
7883,4.200,0.152,2.804,0.000,10.968,0.000,0.000,34.679
7901,4.200,0.150,2.804,0.000,10.972,0.000,0.000,34.715
7919,4.200,0.147,2.805,0.000,10.975,0.000,0.000,34.703
7937,4.200,0.144,2.806,0.000,10.978,0.000,0.000,34.657
7955,4.200,0.141,2.806,0.000,10.981,0.000,0.000,34.675
7973,4.200,0.138,2.807,0.000,10.984,0.000,0.000,34.690
7991,4.200,0.136,2.808,0.000,10.987,0.000,0.000,34.689
8009,4.200,0.134,2.809,0.000,10.989,0.000,0.000,34.699
8027,4.200,0.131,2.809,0.000,10.992,0.000,0.000,34.642
8045,4.200,0.129,2.810,0.000,10.995,0.000,0.000,34.657
8063,4.200,0.127,2.810,0.000,10.998,0.000,0.000,34.685
8081,4.200,0.125,2.811,0.000,11.000,0.000,0.000,34.667
8099,4.200,0.122,2.812,0.000,11.003,0.000,0.000,34.645
8117,4.200,0.121,2.812,0.000,11.006,0.000,0.000,34.641
8135,4.200,0.119,2.813,0.000,11.008,0.000,0.000,34.628
8153,4.200,0.116,2.814,0.000,11.010,0.000,0.000,34.636
8171,4.200,0.114,2.814,0.000,11.013,0.000,0.000,34.662
8189,4.200,0.112,2.815,0.000,11.015,0.000,0.000,34.672
8207,4.200,0.111,2.815,0.000,11.018,0.000,0.000,34.642
8225,4.200,0.109,2.816,0.000,11.020,0.000,0.000,34.617
8243,4.200,0.107,2.816,0.000,11.022,0.000,0.000,34.641
8261,4.200,0.105,2.817,0.000,11.024,0.000,0.000,34.638
8279,4.200,0.103,2.817,0.000,11.027,0.000,0.000,34.655
8297,4.200,0.102,2.818,0.000,11.029,0.000,0.000,34.684
8315,4.200,0.100,2.818,0.000,11.031,0.000,0.000,34.665
8333,4.200,0.099,2.819,0.000,11.033,0.000,0.000,34.657
8351,4.200,0.096,2.819,0.000,11.035,0.000,0.000,34.664
8369,4.200,0.096,2.820,0.000,11.037,0.000,0.000,34.667
8387,4.200,0.094,2.820,0.000,11.039,0.000,0.000,34.638
8405,4.200,0.092,2.821,0.000,11.041,0.000,0.000,34.688
8423,4.200,0.090,2.821,0.000,11.043,0.000,0.000,34.639
8441,4.200,0.089,2.822,0.000,11.045,0.000,0.000,34.672
8459,4.200,0.088,2.822,0.000,11.047,0.000,0.000,34.681
8477,4.200,0.086,2.823,0.000,11.048,0.000,0.000,34.646
8495,4.200,0.084,2.823,0.000,11.050,0.000,0.000,34.672
8513,4.200,0.083,2.823,0.000,11.052,0.000,0.000,34.641
8531,4.200,0.082,2.824,0.000,11.054,0.000,0.000,34.653
8549,4.200,0.080,2.824,0.000,11.055,0.000,0.000,34.608
8567,4.200,0.080,2.825,0.000,11.057,0.000,0.000,34.656
8585,4.200,0.079,2.825,0.000,11.059,0.000,0.000,34.649
8603,4.200,0.077,2.825,0.000,11.060,0.000,0.000,34.653
8621,4.200,0.075,2.826,0.000,11.062,0.000,0.000,34.704
8639,4.200,0.074,2.826,0.000,11.064,0.000,0.000,34.648
8657,4.200,0.073,2.827,0.000,11.065,0.000,0.000,34.637
8675,4.200,0.072,2.827,0.000,11.067,0.000,0.000,34.667
8693,4.200,0.071,2.827,0.000,11.068,0.000,0.000,34.649
8711,4.200,0.070,2.828,0.000,11.070,0.000,0.000,34.630
8729,4.200,0.069,2.828,0.000,11.071,0.000,0.000,34.654
8747,4.200,0.068,2.828,0.000,11.073,0.000,0.000,34.649
8765,4.200,0.066,2.829,0.000,11.074,0.000,0.000,34.599
8783,4.200,0.065,2.829,0.000,11.075,0.000,-0.002,34.623
8801,4.195,0.000,2.829,0.000,11.075,0.000,0.000,34.624
8819,4.194,0.000,2.829,0.000,11.075,0.000,0.000,34.600
8837,4.194,0.000,2.829,0.000,11.075,0.000,0.000,34.614
8855,4.193,0.000,2.829,0.000,11.075,0.000,0.000,34.605
8873,4.193,0.000,2.829,0.000,11.075,0.000,0.000,34.637
8891,4.193,0.000,2.829,0.000,11.075,0.000,0.000,34.638
8909,4.192,0.000,2.829,0.000,11.075,0.000,0.000,34.632
8927,4.192,0.000,2.829,0.000,11.075,0.000,0.000,34.655
8945,4.192,0.000,2.829,0.000,11.075,0.000,0.000,34.628
8963,4.192,0.000,2.829,0.000,11.075,0.000,0.000,34.623
8981,4.191,0.000,2.829,0.000,11.075,0.000,0.000,34.610
8999,4.191,0.000,2.829,0.000,11.075,0.000,0.000,34.566
9017,4.191,0.000,2.829,0.000,11.075,0.000,0.000,34.631
9035,4.191,0.000,2.829,0.000,11.075,0.000,0.000,34.614
9053,4.191,0.000,2.829,0.000,11.075,0.000,0.000,34.608
9071,4.191,0.000,2.829,0.000,11.075,0.000,0.000,34.628
9089,4.190,0.000,2.829,0.000,11.075,0.000,0.000,34.628
9107,4.190,0.000,2.829,0.000,11.075,0.000,0.000,34.630
9125,4.190,0.000,2.829,0.000,11.075,0.000,0.000,34.649
9143,4.190,0.000,2.829,0.000,11.075,0.000,0.000,34.609
9161,4.190,0.000,2.829,0.000,11.075,0.000,0.000,34.607
9179,4.190,0.000,2.829,0.000,11.075,0.000,0.000,34.591
9197,4.190,0.000,2.829,0.000,11.075,0.000,0.000,34.573
9215,4.190,0.000,2.829,0.000,11.075,0.000,0.000,34.590
9233,4.189,0.000,2.829,0.000,11.075,0.000,0.000,34.631
9251,4.189,0.000,2.829,0.000,11.075,0.000,0.000,34.605
9269,4.189,0.000,2.829,0.000,11.075,0.000,0.000,34.547
9287,4.189,0.000,2.829,0.000,11.075,0.000,0.000,34.621
9305,4.189,0.000,2.829,0.000,11.075,0.000,0.000,34.626
9323,4.189,0.000,2.829,0.000,11.075,0.000,0.000,34.605
9341,4.189,0.000,2.829,0.000,11.075,0.000,0.000,34.627
9359,4.189,0.000,2.829,0.000,11.075,0.000,0.000,34.664
9377,4.188,0.000,2.829,0.000,11.075,0.000,0.000,34.632
9395,4.188,0.000,2.829,0.000,11.075,0.000,0.000,34.622
9413,4.188,0.000,2.829,0.000,11.075,0.000,0.000,34.595
9431,4.188,0.000,2.829,0.000,11.075,0.000,0.000,34.601
9449,4.188,0.000,2.829,0.000,11.075,0.000,0.000,34.620
9467,4.188,0.000,2.829,0.000,11.075,0.000,0.000,34.616
9485,4.188,0.000,2.829,0.000,11.075,0.000,0.000,34.577
9503,4.188,0.000,2.829,0.000,11.075,0.000,0.000,34.578
9521,4.188,0.000,2.829,0.000,11.075,0.000,0.000,34.612
9539,4.188,0.000,2.829,0.000,11.075,0.000,0.000,34.616
9557,4.188,0.000,2.829,0.000,11.075,0.000,0.000,34.619
9575,4.187,0.000,2.829,0.000,11.075,0.000,0.000,34.580
9593,4.188,0.000,2.829,0.000,11.075,0.000,0.000,34.592
9611,4.187,0.000,2.829,0.000,11.075,0.000,0.000,34.583
9629,4.187,0.000,2.829,0.000,11.075,0.000,0.000,34.585
9647,4.187,0.000,2.829,0.000,11.075,0.000,0.000,34.627
9665,4.187,0.000,2.829,0.000,11.075,0.000,0.000,34.601
9683,4.187,0.000,2.829,0.000,11.075,0.000,0.000,34.602
9701,4.187,0.000,2.829,0.000,11.075,0.000,0.000,34.590
9719,4.187,0.000,2.829,0.000,11.075,0.000,0.000,34.610
9737,4.187,0.000,2.829,0.000,11.075,0.000,0.000,34.615
9755,4.187,0.000,2.829,0.000,11.075,0.000,0.000,34.605
9773,4.187,0.000,2.829,0.000,11.075,0.000,0.000,34.592
9791,4.187,0.000,2.829,0.000,11.075,0.000,0.000,34.590
9809,4.187,0.000,2.829,0.000,11.075,0.000,0.000,34.641
9827,4.186,0.000,2.829,0.000,11.075,0.000,0.000,34.658
9845,4.186,0.000,2.829,0.000,11.075,0.000,0.000,34.629
9863,4.186,0.000,2.829,0.000,11.075,0.000,0.000,34.614
9881,4.186,0.000,2.829,0.000,11.075,0.000,0.000,34.618
9899,4.186,0.000,2.829,0.000,11.075,0.000,0.000,34.628
9917,4.186,0.000,2.829,0.000,11.075,0.000,0.000,34.614
9935,4.186,0.000,2.829,0.000,11.075,0.000,0.000,34.614
9953,4.186,0.000,2.829,0.000,11.075,0.000,0.000,34.609
9971,4.186,0.000,2.829,0.000,11.075,0.000,0.000,34.589
9989,4.186,0.000,2.829,0.000,11.075,0.000,0.000,34.576
10007,4.186,0.000,2.829,0.000,11.075,0.000,0.000,34.636
10025,4.186,0.000,2.829,0.000,11.075,0.000,0.000,34.603
10043,4.186,0.000,2.829,0.000,11.075,0.000,0.000,34.613
10061,4.186,0.000,2.829,0.000,11.075,0.000,0.000,34.627
10079,4.186,0.000,2.829,0.000,11.075,0.000,0.000,34.643
10097,4.186,0.000,2.829,0.000,11.075,0.000,0.000,34.581
10115,4.186,0.000,2.829,0.000,11.075,0.000,0.000,34.601
10133,4.186,0.000,2.829,0.000,11.075,0.000,0.000,34.640
10151,4.186,0.000,2.829,0.000,11.075,0.000,0.000,34.625
10169,4.185,0.000,2.829,0.000,11.075,0.000,0.000,34.550
10187,4.185,0.000,2.829,0.000,11.075,0.000,0.000,34.621
10205,4.185,0.000,2.829,0.000,11.075,0.000,0.000,34.588
10223,4.185,0.000,2.829,0.000,11.075,0.000,0.000,34.618
10241,4.185,0.000,2.829,0.000,11.075,0.000,0.000,34.580
10259,4.185,0.000,2.829,0.000,11.075,0.000,0.000,34.623
10277,4.185,0.000,2.829,0.000,11.075,0.000,0.000,34.619
10295,4.185,0.000,2.829,0.000,11.075,0.000,0.000,34.630
10313,4.185,0.000,2.829,0.000,11.075,0.000,0.000,34.600
10331,4.185,0.000,2.829,0.000,11.075,0.000,0.000,34.618
10349,4.185,0.000,2.829,0.000,11.075,0.000,0.000,34.604
10367,4.185,0.000,2.829,0.000,11.075,0.000,0.000,34.573
10385,4.185,0.000,2.829,0.000,11.075,0.000,0.000,34.597
10403,4.185,0.000,2.829,0.000,11.075,0.000,0.000,34.611
10421,4.185,0.000,2.829,0.000,11.075,0.000,0.000,34.643
10439,4.185,0.000,2.829,0.000,11.075,0.000,0.000,34.643
10457,4.185,0.000,2.829,0.000,11.075,0.000,0.000,34.638
10475,4.185,0.000,2.829,0.000,11.075,0.000,0.000,34.625
10493,4.185,0.000,2.829,0.000,11.075,0.000,0.000,34.581
10511,4.185,0.000,2.829,0.000,11.075,0.000,0.000,34.591
10529,4.185,0.000,2.829,0.000,11.075,0.000,0.000,34.567
10547,4.184,0.000,2.829,0.000,11.075,0.000,0.000,34.607
10565,4.184,0.000,2.829,0.000,11.075,0.000,0.000,34.565
10583,4.184,0.000,2.829,0.000,11.075,0.000,0.000,34.620
10601,4.184,0.000,2.829,0.000,11.075,0.000,0.000,34.616
10619,4.184,0.000,2.829,0.000,11.075,0.000,0.000,34.613
10637,4.184,0.000,2.829,0.000,11.075,0.000,0.000,34.621
10655,4.184,0.000,2.829,0.000,11.075,0.000,0.000,34.622
10673,4.184,0.000,2.829,0.000,11.075,0.000,0.000,34.612
10691,4.184,0.000,2.829,0.000,11.075,0.000,0.000,34.609
10709,4.184,0.000,2.829,0.000,11.075,0.000,0.000,34.623
10727,4.184,0.000,2.829,0.000,11.075,0.000,0.000,34.577
10745,4.184,0.000,2.829,0.000,11.075,0.000,0.000,34.561
10763,4.184,0.000,2.829,0.000,11.075,0.000,0.000,34.587
10781,4.184,0.000,2.829,0.000,11.075,0.000,0.000,34.592
10799,4.184,0.000,2.829,0.000,11.075,0.000,0.000,34.608
10817,4.184,0.000,2.829,0.000,11.075,0.000,0.000,34.605
10835,4.184,0.000,2.829,0.000,11.075,0.000,0.000,34.591
10853,4.184,0.000,2.829,0.000,11.075,0.000,0.000,34.574
10871,4.184,0.000,2.829,0.000,11.075,0.000,0.000,34.596
10889,4.184,0.000,2.829,0.000,11.075,0.000,0.000,34.607
10907,4.184,0.000,2.829,0.000,11.075,0.000,0.000,34.603
10925,4.184,0.000,2.829,0.000,11.075,0.000,0.000,34.623
10943,4.184,0.000,2.829,0.000,11.075,0.000,0.000,34.597
10961,4.184,0.000,2.829,0.000,11.075,0.000,0.000,34.602
10979,4.184,0.000,2.829,0.000,11.075,0.000,0.000,34.618
10997,4.184,0.000,2.829,0.000,11.075,0.000,0.000,34.590
11015,4.184,0.000,2.829,0.000,11.075,0.000,0.000,34.621
11033,4.184,0.000,2.829,0.000,11.075,0.000,0.000,34.606
11051,4.184,0.000,2.829,0.000,11.075,0.000,0.000,34.638
11069,4.184,0.000,2.829,0.000,11.075,0.000,0.000,34.625
11087,4.183,0.000,2.829,0.000,11.075,0.000,0.000,34.613
11105,4.184,0.000,2.829,0.000,11.075,0.000,0.000,34.588
11123,4.183,0.000,2.829,0.000,11.075,0.000,0.000,34.610
11141,4.183,0.000,2.829,0.000,11.075,0.000,0.000,34.622
11159,4.183,0.000,2.829,0.000,11.075,0.000,0.000,34.615
11177,4.183,0.000,2.829,0.000,11.075,0.000,0.000,34.606
11195,4.183,0.000,2.829,0.000,11.075,0.000,0.000,34.637
11213,4.183,0.000,2.829,0.000,11.075,0.000,0.000,34.638
11231,4.183,0.000,2.829,0.000,11.075,0.000,0.000,34.648
11249,4.183,0.000,2.829,0.000,11.075,0.000,0.000,34.619
11267,4.183,0.000,2.829,0.000,11.075,0.000,0.000,34.615
11285,4.183,0.000,2.829,0.000,11.075,0.000,0.000,34.622
11303,4.183,0.000,2.829,0.000,11.075,0.000,0.000,34.611
11321,4.183,0.000,2.829,0.000,11.075,0.000,0.000,34.621
11339,4.183,0.000,2.829,0.000,11.075,0.000,0.000,34.590
11357,4.183,0.000,2.829,0.000,11.075,0.000,0.000,34.623
11375,4.183,0.000,2.829,0.000,11.075,0.000,0.000,34.609
11393,4.183,0.000,2.829,0.000,11.075,0.000,0.000,34.592
11411,4.183,0.000,2.829,0.000,11.075,0.000,0.000,34.604
11429,4.183,0.000,2.829,0.000,11.075,0.000,0.000,34.595
11447,4.183,0.000,2.829,0.000,11.075,0.000,0.000,34.572
11465,4.183,0.000,2.829,0.000,11.075,0.000,0.000,34.590
11483,4.183,0.000,2.829,0.000,11.075,0.000,0.000,34.610
11501,4.183,0.000,2.829,0.000,11.075,0.000,0.000,34.631
11519,4.183,0.000,2.829,0.000,11.075,0.000,0.000,34.619
11537,4.183,0.000,2.829,0.000,11.075,0.000,0.000,34.643
11555,4.183,0.000,2.829,0.000,11.075,0.000,0.000,34.629
11573,4.183,0.000,2.829,0.000,11.075,0.000,0.000,34.606
11591,4.183,0.000,2.829,0.000,11.075,0.000,0.000,34.613
11609,4.183,0.000,2.829,0.000,11.075,0.000,0.000,34.616
11627,4.183,0.000,2.829,0.000,11.075,0.000,0.000,34.629
11645,4.183,0.000,2.829,0.000,11.075,0.000,0.000,34.611
11663,4.183,0.000,2.829,0.000,11.075,0.000,0.000,34.609
11681,4.183,0.000,2.829,0.000,11.075,0.000,0.000,34.658
11699,4.183,0.000,2.829,0.000,11.075,0.000,0.000,34.542
11717,4.183,0.000,2.829,0.000,11.075,0.000,0.000,34.632
11735,4.182,0.000,2.829,0.000,11.075,0.000,0.000,34.577
11753,4.183,0.000,2.829,0.000,11.075,0.000,0.000,34.607
11771,4.182,0.000,2.829,0.000,11.075,0.000,0.000,34.630
11789,4.182,0.000,2.829,0.000,11.075,0.000,0.000,34.622
11807,4.182,0.000,2.829,0.000,11.075,0.000,0.000,34.618
11825,4.182,0.000,2.829,0.000,11.075,0.000,0.000,34.621
11843,4.182,0.000,2.829,0.000,11.075,0.000,0.000,34.610
11861,4.182,0.000,2.829,0.000,11.075,0.000,0.000,34.598
11879,4.182,0.000,2.829,0.000,11.075,0.000,0.000,34.614
11897,4.182,0.000,2.829,0.000,11.075,0.000,0.000,34.596
11915,4.182,0.000,2.829,0.000,11.075,0.000,0.000,34.570
11933,4.182,0.000,2.829,0.000,11.075,0.000,0.000,34.578
11951,4.182,0.000,2.829,0.000,11.075,0.000,0.000,34.604
11969,4.182,0.000,2.829,0.000,11.075,0.000,0.000,34.606
11987,4.182,0.000,2.829,0.000,11.075,0.000,0.000,34.564
12005,4.182,0.000,2.829,0.000,11.075,0.000,0.000,34.586
12023,4.182,0.000,2.829,0.000,11.075,0.000,0.000,34.595
12041,4.182,0.000,2.829,0.000,11.075,0.000,0.000,34.572
12059,4.182,0.000,2.829,0.000,11.075,0.000,0.000,34.592
12077,4.182,0.000,2.829,0.000,11.075,0.000,0.000,34.564
12095,4.182,0.000,2.829,0.000,11.075,0.000,0.000,34.583
12113,4.182,0.000,2.829,0.000,11.075,0.000,0.000,34.638
12131,4.182,0.000,2.829,0.000,11.075,0.000,0.000,34.588
12149,4.182,0.000,2.829,0.000,11.075,0.000,0.000,34.575
12167,4.182,0.000,2.829,0.000,11.075,0.000,0.000,34.589
12185,4.182,0.000,2.829,0.000,11.075,0.000,0.000,34.602
12203,4.182,0.000,2.829,0.000,11.075,0.000,0.000,34.596
12221,4.182,0.000,2.829,0.000,11.075,0.000,0.000,34.599
12239,4.182,0.000,2.829,0.000,11.075,0.000,0.000,34.584
12257,4.182,0.000,2.829,0.000,11.075,0.000,0.000,34.565
12275,4.182,0.000,2.829,0.000,11.075,0.000,0.000,34.577
12293,4.182,0.000,2.829,0.000,11.075,0.000,0.000,34.599
12311,4.182,0.000,2.829,0.000,11.075,0.000,0.000,34.578
12329,4.182,0.000,2.829,0.000,11.075,0.000,0.000,34.593
12347,4.182,0.000,2.829,0.000,11.075,0.000,0.000,34.598
12365,4.182,0.000,2.829,0.000,11.075,0.000,0.000,34.572
12383,4.182,0.000,2.829,0.000,11.075,0.000,0.000,34.598
12400,2.810,-16.749,2.829,0.079,11.075,0.234,-0.026,36.148
12418,4.076,0.000,2.829,0.093,11.075,0.272,0.002,37.943
12436,4.100,0.000,2.829,0.093,11.075,0.272,0.001,38.512
12454,4.111,0.000,2.829,0.093,11.075,0.272,0.000,38.508
12472,4.117,0.000,2.829,0.093,11.075,0.272,0.000,38.290
12490,4.120,0.000,2.829,0.093,11.075,0.272,0.000,37.964
12508,4.122,0.000,2.829,0.093,11.075,0.272,0.000,37.792
12526,4.124,0.000,2.829,0.093,11.075,0.272,0.000,37.591
12544,4.124,0.000,2.829,0.093,11.075,0.272,0.000,37.364
12562,4.125,0.000,2.829,0.093,11.075,0.272,0.000,37.146
12580,4.126,0.000,2.829,0.093,11.075,0.272,0.000,36.969
12598,4.126,0.000,2.829,0.093,11.075,0.272,0.000,36.797
12616,4.127,0.000,2.829,0.093,11.075,0.272,0.000,36.622
12634,4.127,0.000,2.829,0.093,11.075,0.272,0.000,36.555
12652,4.127,0.000,2.829,0.093,11.075,0.272,0.000,36.426
12670,4.128,0.000,2.829,0.093,11.075,0.272,0.000,36.255
12688,4.128,0.000,2.829,0.093,11.075,0.272,0.000,36.199
12706,4.128,0.000,2.829,0.093,11.075,0.272,0.000,36.103
12724,4.128,0.000,2.829,0.093,11.075,0.272,0.000,35.988
12742,4.128,0.000,2.829,0.093,11.075,0.272,0.000,35.943
12760,4.128,0.000,2.829,0.093,11.075,0.272,0.000,35.817
12778,4.129,0.000,2.829,0.093,11.075,0.272,0.000,35.776
12796,4.129,0.000,2.829,0.093,11.075,0.272,0.000,35.675
12814,4.129,0.000,2.829,0.093,11.075,0.272,0.000,35.592
12832,4.129,0.000,2.829,0.093,11.075,0.272,0.000,35.542
12850,4.129,0.000,2.829,0.093,11.075,0.272,0.000,35.496
12868,4.129,0.000,2.829,0.093,11.075,0.272,0.000,35.400
12886,4.129,0.000,2.829,0.093,11.075,0.272,0.000,35.382
12904,4.129,0.000,2.829,0.093,11.075,0.272,0.000,35.292
12922,4.129,0.000,2.829,0.093,11.075,0.272,0.000,35.265
12940,4.129,0.000,2.829,0.093,11.075,0.272,0.000,35.278
12958,4.129,0.000,2.829,0.093,11.075,0.272,0.000,35.185
12976,4.129,0.000,2.829,0.093,11.075,0.272,0.000,35.137
12994,4.130,0.000,2.829,0.093,11.075,0.272,0.000,35.128
13012,4.129,0.000,2.829,0.093,11.075,0.272,0.000,35.080
13030,4.129,0.000,2.829,0.093,11.075,0.272,0.000,35.038
13048,4.130,0.000,2.829,0.093,11.075,0.272,0.000,35.006
13066,4.129,0.000,2.829,0.093,11.075,0.272,0.000,34.960
13084,4.130,0.000,2.829,0.093,11.075,0.272,0.000,34.979
13102,4.130,0.000,2.829,0.093,11.075,0.272,0.000,34.931
13120,4.130,0.000,2.829,0.093,11.075,0.272,0.000,34.896
13138,4.130,0.000,2.829,0.093,11.075,0.272,0.000,34.911
13156,4.130,0.000,2.829,0.093,11.075,0.272,0.000,34.904
13174,4.130,0.000,2.829,0.093,11.075,0.272,0.000,34.842
13192,4.130,0.000,2.829,0.093,11.075,0.272,0.000,34.855
13210,4.130,0.000,2.829,0.093,11.075,0.272,0.000,34.842
13228,4.130,0.000,2.829,0.093,11.075,0.272,0.000,34.814
13246,4.130,0.000,2.829,0.093,11.075,0.272,0.000,34.797
13264,4.130,0.000,2.829,0.093,11.075,0.272,0.000,34.807
13282,4.130,0.000,2.829,0.093,11.075,0.272,0.000,34.764
13300,4.130,0.000,2.829,0.093,11.075,0.272,0.000,34.796
13318,4.130,0.000,2.829,0.093,11.075,0.272,0.000,34.777
13336,4.130,0.000,2.829,0.093,11.075,0.272,0.000,34.779
13354,4.130,0.000,2.829,0.093,11.075,0.272,0.000,34.774
13372,4.130,0.000,2.829,0.093,11.075,0.272,0.000,34.747
13390,4.130,0.000,2.829,0.093,11.075,0.272,0.000,34.725
13408,4.130,0.000,2.829,0.093,11.075,0.272,0.000,34.667
13426,4.130,0.000,2.829,0.093,11.075,0.272,0.000,34.718
13444,4.130,0.000,2.829,0.093,11.075,0.272,0.000,34.701
13462,4.130,0.000,2.829,0.093,11.075,0.272,0.000,34.705
13480,4.130,0.000,2.829,0.093,11.075,0.272,0.000,34.689
13498,4.130,0.000,2.829,0.093,11.075,0.272,0.000,34.656
13516,4.130,0.000,2.829,0.093,11.075,0.272,0.000,34.691
13534,4.130,0.000,2.829,0.093,11.075,0.272,0.000,34.677
13552,4.130,0.000,2.829,0.093,11.075,0.272,0.000,34.670
13570,4.130,0.000,2.829,0.093,11.075,0.272,0.000,34.675
13588,4.130,0.000,2.829,0.093,11.075,0.272,0.000,34.675
13606,4.130,0.000,2.829,0.093,11.075,0.272,0.000,34.690
13624,4.130,0.000,2.829,0.093,11.075,0.272,0.000,34.661
13642,4.130,0.000,2.829,0.093,11.075,0.272,0.000,34.650
13660,4.130,0.000,2.829,0.093,11.075,0.272,0.000,34.637
13678,4.130,0.000,2.829,0.093,11.075,0.272,0.000,34.623
13696,4.130,0.000,2.829,0.093,11.075,0.272,0.000,34.660
13714,4.130,0.000,2.829,0.093,11.075,0.272,0.000,34.635
13732,4.130,0.000,2.829,0.093,11.075,0.272,0.000,34.662
13750,4.130,0.000,2.829,0.093,11.075,0.272,0.000,34.626
13768,4.130,0.000,2.829,0.093,11.075,0.272,0.000,34.643
13786,4.130,0.000,2.829,0.093,11.075,0.272,0.000,34.660
13804,4.130,0.000,2.829,0.093,11.075,0.272,0.000,34.662
13822,4.130,0.000,2.829,0.093,11.075,0.272,0.000,34.645
13840,4.130,0.000,2.829,0.093,11.075,0.272,0.000,34.610
13858,4.130,0.000,2.829,0.093,11.075,0.272,0.000,34.646
13876,4.130,0.000,2.829,0.093,11.075,0.272,0.000,34.666
13894,4.130,0.000,2.829,0.093,11.075,0.272,0.000,34.664
13912,4.130,0.000,2.829,0.093,11.075,0.272,0.000,34.639
13930,4.130,0.000,2.829,0.093,11.075,0.272,0.000,34.650
13948,4.130,0.000,2.829,0.093,11.075,0.272,0.000,34.642
13966,4.130,0.000,2.829,0.093,11.075,0.272,0.000,34.641
13984,4.130,0.000,2.829,0.093,11.075,0.272,0.000,34.617
14002,4.130,0.000,2.829,0.093,11.075,0.272,0.000,34.652
14020,4.130,0.000,2.829,0.093,11.075,0.272,0.000,34.609
14038,4.130,0.000,2.829,0.093,11.075,0.272,0.000,34.602
14056,4.130,0.000,2.829,0.093,11.075,0.272,0.000,34.593
14074,4.131,0.000,2.829,0.093,11.075,0.272,0.000,34.623
14092,4.130,0.000,2.829,0.093,11.075,0.272,0.000,34.652
14110,4.130,0.000,2.829,0.093,11.075,0.272,0.000,34.602
14128,4.131,0.000,2.829,0.093,11.075,0.272,0.000,34.606
14146,4.130,0.000,2.829,0.093,11.075,0.272,0.000,34.605
14164,4.131,0.000,2.829,0.093,11.075,0.272,0.000,34.646
14182,4.130,0.000,2.829,0.093,11.075,0.272,0.000,34.608
14200,4.131,0.000,2.829,0.093,11.075,0.272,0.000,34.578
14218,4.131,0.000,2.829,0.093,11.075,0.272,0.000,34.619
14236,4.130,0.000,2.829,0.093,11.075,0.272,0.000,34.628
14254,4.130,0.000,2.829,0.093,11.075,0.272,0.000,34.629
14272,4.130,0.000,2.829,0.093,11.075,0.272,0.000,34.646
14290,4.131,0.000,2.829,0.093,11.075,0.272,0.000,34.616
14308,4.131,0.000,2.829,0.093,11.075,0.272,0.000,34.636
14326,4.131,0.000,2.829,0.093,11.075,0.272,0.000,34.594
14344,4.130,0.000,2.829,0.093,11.075,0.272,0.000,34.587
14362,4.131,0.000,2.829,0.093,11.075,0.272,0.000,34.609
14380,4.131,0.000,2.829,0.093,11.075,0.272,0.000,34.627
14398,4.131,0.000,2.829,0.093,11.075,0.272,0.000,34.601
14416,4.131,0.000,2.829,0.093,11.075,0.272,0.000,34.655
14434,4.131,0.000,2.829,0.093,11.075,0.272,0.000,34.645
14452,4.131,0.000,2.829,0.093,11.075,0.272,0.000,34.616
14470,4.131,0.000,2.829,0.093,11.075,0.272,0.000,34.583
14488,4.131,0.000,2.829,0.093,11.075,0.272,0.000,34.599
14506,4.131,0.000,2.829,0.093,11.075,0.272,0.000,34.610
14524,4.131,0.000,2.829,0.093,11.075,0.272,0.000,34.627
14542,4.131,0.000,2.829,0.093,11.075,0.272,0.000,34.589
14560,4.131,0.000,2.829,0.093,11.075,0.272,0.000,34.621
14578,4.131,0.000,2.829,0.093,11.075,0.272,0.000,34.605
14596,4.131,0.000,2.829,0.093,11.075,0.272,0.000,34.597
14614,4.131,0.000,2.829,0.093,11.075,0.272,0.000,34.587
14632,4.131,0.000,2.829,0.093,11.075,0.272,0.000,34.613
14650,4.131,0.000,2.829,0.093,11.075,0.272,0.000,34.611
14668,4.131,0.000,2.829,0.093,11.075,0.272,0.000,34.635
14686,4.131,0.000,2.829,0.093,11.075,0.272,0.000,34.612
14704,4.131,0.000,2.829,0.093,11.075,0.272,0.000,34.627
14722,4.131,0.000,2.829,0.093,11.075,0.272,0.000,34.624
14740,4.131,0.000,2.829,0.093,11.075,0.272,0.000,34.600
14758,4.131,0.000,2.829,0.093,11.075,0.272,0.000,34.614
14776,4.131,0.000,2.829,0.093,11.075,0.272,0.000,34.586
14794,4.131,0.000,2.829,0.093,11.075,0.272,0.000,34.624
14812,4.131,0.000,2.829,0.093,11.075,0.272,0.000,34.639
14830,4.131,0.000,2.829,0.093,11.075,0.272,0.000,34.624
14848,4.131,0.000,2.829,0.093,11.075,0.272,0.000,34.617
14866,4.131,0.000,2.829,0.093,11.075,0.272,0.000,34.634
14884,4.131,0.000,2.829,0.093,11.075,0.272,0.000,34.642
14902,4.131,0.000,2.829,0.093,11.075,0.272,0.000,34.619
14920,4.131,0.000,2.829,0.093,11.075,0.272,0.000,34.566
14938,4.131,0.000,2.829,0.093,11.075,0.272,0.000,34.616
14956,4.131,0.000,2.829,0.093,11.075,0.272,0.000,34.610
14974,4.131,0.000,2.829,0.093,11.075,0.272,0.000,34.627
14992,4.131,0.000,2.829,0.093,11.075,0.272,0.000,34.603
15010,4.131,0.000,2.829,0.093,11.075,0.272,0.000,34.592
15028,4.131,0.000,2.829,0.093,11.075,0.272,0.000,34.568
15046,4.131,0.000,2.829,0.093,11.075,0.272,0.000,34.616
15064,4.131,0.000,2.829,0.093,11.075,0.272,0.000,34.624
15082,4.131,0.000,2.829,0.093,11.075,0.272,0.000,34.614
15100,4.131,0.000,2.829,0.093,11.075,0.272,0.000,34.611
15118,4.131,0.000,2.829,0.093,11.075,0.272,0.000,34.634
15136,4.131,0.000,2.829,0.093,11.075,0.272,0.000,34.582
15154,4.131,0.000,2.829,0.093,11.075,0.272,0.000,34.593
15172,4.131,0.000,2.829,0.093,11.075,0.272,0.000,34.604
15190,4.131,0.000,2.829,0.093,11.075,0.272,0.000,34.610
15208,4.131,0.000,2.829,0.093,11.075,0.272,0.000,34.554
15226,4.131,0.000,2.829,0.093,11.075,0.272,0.000,34.609
15244,4.131,0.000,2.829,0.093,11.075,0.272,0.000,34.589
15262,4.131,0.000,2.829,0.093,11.075,0.272,0.000,34.659
15280,4.131,0.000,2.829,0.093,11.075,0.272,0.000,34.616
15298,4.131,0.000,2.829,0.093,11.075,0.272,0.000,34.595
15316,4.131,0.000,2.829,0.093,11.075,0.272,0.000,34.610
15334,4.131,0.000,2.829,0.093,11.075,0.272,0.000,34.627
15352,4.131,0.000,2.829,0.093,11.075,0.272,0.000,34.586
15370,4.131,0.000,2.829,0.093,11.075,0.272,0.000,34.610
15388,4.131,0.000,2.829,0.093,11.075,0.272,0.000,34.572
15406,4.131,0.000,2.829,0.093,11.075,0.272,0.000,34.594
15424,4.131,0.000,2.829,0.093,11.075,0.272,0.000,34.583
15442,4.131,0.000,2.829,0.093,11.075,0.272,0.000,34.601
15460,4.131,0.000,2.829,0.093,11.075,0.272,0.000,34.615
15478,4.131,0.000,2.829,0.093,11.075,0.272,0.000,34.610
15496,4.131,0.000,2.829,0.093,11.075,0.272,0.000,34.590
15514,4.131,0.000,2.829,0.093,11.075,0.272,0.000,34.604
15532,4.131,0.000,2.829,0.093,11.075,0.272,0.000,34.628
15550,4.131,0.000,2.829,0.093,11.075,0.272,0.000,34.625
15568,4.131,0.000,2.829,0.093,11.075,0.272,0.000,34.622
15586,4.131,0.000,2.829,0.093,11.075,0.272,0.000,34.633
15604,4.131,0.000,2.829,0.093,11.075,0.272,0.000,34.628
15622,4.131,0.000,2.829,0.093,11.075,0.272,0.000,34.601
15640,4.131,0.000,2.829,0.093,11.075,0.272,0.000,34.607
15658,4.131,0.000,2.829,0.093,11.075,0.272,0.000,34.612
15676,4.131,0.000,2.829,0.093,11.075,0.272,0.000,34.605
15694,4.131,0.000,2.829,0.093,11.075,0.272,0.000,34.647
15712,4.131,0.000,2.829,0.093,11.075,0.272,0.000,34.607
15730,4.131,0.000,2.829,0.093,11.075,0.272,0.000,34.568
15748,4.131,0.000,2.829,0.093,11.075,0.272,0.000,34.645
15766,4.131,0.000,2.829,0.093,11.075,0.272,0.000,34.572
15784,4.131,0.000,2.829,0.093,11.075,0.272,0.000,34.575
15802,4.131,0.000,2.829,0.093,11.075,0.272,0.000,34.588
15820,4.131,0.000,2.829,0.093,11.075,0.272,0.000,34.593
15838,4.131,0.000,2.829,0.093,11.075,0.272,0.000,34.596
15856,4.131,0.000,2.829,0.093,11.075,0.272,0.000,34.565
15874,4.131,0.000,2.829,0.093,11.075,0.272,0.000,34.562
15892,4.131,0.000,2.829,0.093,11.075,0.272,0.000,34.588
15910,4.131,0.000,2.829,0.093,11.075,0.272,0.000,34.637
15928,4.131,0.000,2.829,0.093,11.075,0.272,0.000,34.621
15946,4.131,0.000,2.829,0.093,11.075,0.272,0.000,34.607
15964,4.131,0.000,2.829,0.093,11.075,0.272,0.000,34.629
15982,4.131,0.000,2.829,0.093,11.075,0.272,0.000,34.603
16000,4.131,0.000,2.829,0.093,11.075,0.272,0.000,34.607
16003,4.131,0.000,2.829,0.093,11.075,0.272,0.000,34.637