File: data/T35/5C/3.csv
time_s,voltage_v,current_a,chargecapacity_ah,dischargecapacity_ah,charge_energy_wh,discharge_energy_wh,voltagedot_v_per_s,temp_degc
1,3.424,0.000,0.000,0.000,0.000,0.000,0.000,34.625
19,3.424,0.000,0.000,0.000,0.000,0.000,0.000,34.643
37,3.424,0.000,0.000,0.000,0.000,0.000,0.000,34.597
55,3.424,0.000,0.000,0.000,0.000,0.000,0.000,34.625
72,3.557,1.625,0.005,0.000,0.019,0.000,0.001,34.640
90,3.569,1.625,0.014,0.000,0.048,0.000,0.000,34.717
108,3.577,1.625,0.022,0.000,0.077,0.000,0.000,34.707
126,3.583,1.625,0.030,0.000,0.106,0.000,0.000,34.754
144,3.588,1.625,0.038,0.000,0.135,0.000,0.000,34.781
162,3.593,1.625,0.046,0.000,0.165,0.000,0.000,34.842
180,3.598,1.625,0.054,0.000,0.194,0.000,0.000,34.907
198,3.602,1.625,0.062,0.000,0.223,0.000,0.000,34.847
216,3.606,1.625,0.070,0.000,0.252,0.000,0.000,34.901
234,3.609,1.625,0.079,0.000,0.282,0.000,0.000,34.904
252,3.613,1.625,0.087,0.000,0.311,0.000,0.000,34.929
270,3.616,1.625,0.095,0.000,0.340,0.000,0.000,34.975
288,3.619,1.625,0.103,0.000,0.370,0.000,0.000,34.968
306,3.622,1.625,0.111,0.000,0.399,0.000,0.000,34.949
324,3.624,1.625,0.119,0.000,0.429,0.000,0.000,35.020
342,3.627,1.625,0.127,0.000,0.458,0.000,0.000,35.029
360,3.629,1.625,0.135,0.000,0.488,0.000,0.000,35.021
378,3.632,1.625,0.144,0.000,0.517,0.000,0.000,35.027
396,3.634,1.625,0.152,0.000,0.547,0.000,0.000,35.047
414,3.636,1.625,0.160,0.000,0.576,0.000,0.000,35.100
432,3.638,1.625,0.168,0.000,0.606,0.000,0.000,35.092
450,3.640,1.625,0.176,0.000,0.635,0.000,0.000,35.139
468,3.642,1.625,0.184,0.000,0.665,0.000,0.000,35.119
486,3.644,1.625,0.192,0.000,0.695,0.000,0.000,35.139
504,3.646,1.625,0.200,0.000,0.724,0.000,0.000,35.159
522,3.648,1.625,0.209,0.000,0.754,0.000,0.000,35.184
540,3.649,1.625,0.217,0.000,0.783,0.000,0.000,35.230
558,3.651,1.625,0.225,0.000,0.813,0.000,0.000,35.214
576,3.653,1.625,0.233,0.000,0.843,0.000,0.000,35.218
594,3.654,1.625,0.241,0.000,0.872,0.000,0.000,35.243
612,3.656,1.625,0.249,0.000,0.902,0.000,0.000,35.262
630,3.658,1.625,0.257,0.000,0.932,0.000,0.000,35.299
648,3.659,1.625,0.265,0.000,0.962,0.000,0.000,35.331
666,3.661,1.625,0.274,0.000,0.991,0.000,0.000,35.325
684,3.663,1.625,0.282,0.000,1.021,0.000,0.000,35.337
702,3.664,1.625,0.290,0.000,1.051,0.000,0.000,35.332
720,3.666,1.625,0.298,0.000,1.081,0.000,0.000,35.302
738,3.668,1.625,0.306,0.000,1.110,0.000,0.000,35.303
756,3.669,1.625,0.314,0.000,1.140,0.000,0.000,35.386
774,3.671,1.625,0.322,0.000,1.170,0.000,0.000,35.366
792,3.673,1.625,0.330,0.000,1.200,0.000,0.000,35.402
810,3.675,1.625,0.339,0.000,1.230,0.000,0.000,35.410
828,3.676,1.625,0.347,0.000,1.260,0.000,0.000,35.396
846,3.678,1.625,0.355,0.000,1.290,0.000,0.000,35.374
864,3.680,1.625,0.363,0.000,1.319,0.000,0.000,35.417
882,3.681,1.625,0.371,0.000,1.349,0.000,0.000,35.449
900,3.683,1.625,0.379,0.000,1.379,0.000,0.000,35.422
918,3.685,1.625,0.387,0.000,1.409,0.000,0.000,35.466
936,3.686,1.625,0.395,0.000,1.439,0.000,0.000,35.465
954,3.688,1.625,0.404,0.000,1.469,0.000,0.000,35.506
972,3.690,1.625,0.412,0.000,1.499,0.000,0.000,35.496
990,3.691,1.625,0.420,0.000,1.529,0.000,0.000,35.526
1008,3.693,1.625,0.428,0.000,1.559,0.000,0.000,35.513
1026,3.695,1.625,0.436,0.000,1.589,0.000,0.000,35.595
1044,3.696,1.625,0.444,0.000,1.619,0.000,0.000,35.556
1062,3.698,1.625,0.452,0.000,1.649,0.000,0.000,35.564
1080,3.700,1.625,0.460,0.000,1.679,0.000,0.000,35.534
1098,3.702,1.625,0.469,0.000,1.709,0.000,0.000,35.561
1116,3.703,1.625,0.477,0.000,1.739,0.000,0.000,35.544
1134,3.705,1.625,0.485,0.000,1.769,0.000,0.000,35.554
1152,3.707,1.625,0.493,0.000,1.800,0.000,0.000,35.564
1170,3.708,1.625,0.501,0.000,1.830,0.000,0.000,35.596
1188,3.710,1.625,0.509,0.000,1.860,0.000,0.000,35.636
1206,3.712,1.625,0.517,0.000,1.890,0.000,0.000,35.601
1224,3.713,1.625,0.525,0.000,1.920,0.000,0.000,35.649
1242,3.715,1.625,0.534,0.000,1.950,0.000,0.000,35.654
1260,3.717,1.625,0.542,0.000,1.981,0.000,0.000,35.656
1278,3.719,1.625,0.550,0.000,2.011,0.000,0.000,35.684
1296,3.720,1.625,0.558,0.000,2.041,0.000,0.000,35.629
1314,3.722,1.625,0.566,0.000,2.071,0.000,0.000,35.670
1332,3.724,1.625,0.574,0.000,2.102,0.000,0.000,35.695
1350,3.725,1.625,0.582,0.000,2.132,0.000,0.000,35.658
1368,3.727,1.625,0.591,0.000,2.162,0.000,0.000,35.676
1386,3.729,1.625,0.599,0.000,2.192,0.000,0.000,35.689
1404,3.730,1.625,0.607,0.000,2.223,0.000,0.000,35.717
1422,3.732,1.625,0.615,0.000,2.253,0.000,0.000,35.712
1440,3.734,1.625,0.623,0.000,2.283,0.000,0.000,35.763
1458,3.735,1.625,0.631,0.000,2.314,0.000,0.000,35.714
1476,3.737,1.625,0.639,0.000,2.344,0.000,0.000,35.777
1494,3.739,1.625,0.647,0.000,2.374,0.000,0.000,35.754
1512,3.740,1.625,0.656,0.000,2.405,0.000,0.000,35.756
1530,3.742,1.625,0.664,0.000,2.435,0.000,0.000,35.779
1548,3.743,1.625,0.672,0.000,2.466,0.000,0.000,35.774
1566,3.745,1.625,0.680,0.000,2.496,0.000,0.000,35.809
1584,3.746,1.625,0.688,0.000,2.526,0.000,0.000,35.788
1602,3.748,1.625,0.696,0.000,2.557,0.000,0.000,35.819
1620,3.749,1.625,0.704,0.000,2.587,0.000,0.000,35.807
1638,3.751,1.625,0.712,0.000,2.618,0.000,0.000,35.859
1656,3.752,1.625,0.721,0.000,2.648,0.000,0.000,35.839
1674,3.754,1.625,0.729,0.000,2.679,0.000,0.000,35.833
1692,3.756,1.625,0.737,0.000,2.709,0.000,0.000,35.807
1710,3.757,1.625,0.745,0.000,2.740,0.000,0.000,35.895
1728,3.759,1.625,0.753,0.000,2.770,0.000,0.000,35.884
1746,3.760,1.625,0.761,0.000,2.801,0.000,0.000,35.856
1764,3.762,1.625,0.769,0.000,2.832,0.000,0.000,35.855
1782,3.763,1.625,0.777,0.000,2.862,0.000,0.000,35.892
1800,3.764,1.625,0.786,0.000,2.893,0.000,0.000,35.896
1818,3.766,1.625,0.794,0.000,2.923,0.000,0.000,35.923
1836,3.767,1.625,0.802,0.000,2.954,0.000,0.000,35.916
1854,3.769,1.625,0.810,0.000,2.984,0.000,0.000,35.901
1872,3.770,1.625,0.818,0.000,3.015,0.000,0.000,35.864
1890,3.772,1.625,0.826,0.000,3.046,0.000,0.000,35.927
1908,3.773,1.625,0.834,0.000,3.076,0.000,0.000,35.864
1926,3.775,1.625,0.842,0.000,3.107,0.000,0.000,35.897
1944,3.777,1.625,0.851,0.000,3.138,0.000,0.000,35.907
1962,3.778,1.625,0.859,0.000,3.168,0.000,0.000,35.920
1980,3.779,1.625,0.867,0.000,3.199,0.000,0.000,35.964
1998,3.781,1.625,0.875,0.000,3.230,0.000,0.000,35.943
2016,3.782,1.625,0.883,0.000,3.261,0.000,0.000,35.892
2034,3.784,1.625,0.891,0.000,3.291,0.000,0.000,35.909
2052,3.786,1.625,0.899,0.000,3.322,0.000,0.000,35.948
2070,3.787,1.625,0.907,0.000,3.353,0.000,0.000,35.951
2088,3.789,1.625,0.916,0.000,3.384,0.000,0.000,35.926
2106,3.790,1.625,0.924,0.000,3.414,0.000,0.000,35.907
2124,3.792,1.625,0.932,0.000,3.445,0.000,0.000,35.936
2142,3.794,1.625,0.940,0.000,3.476,0.000,0.000,35.987
2160,3.795,1.625,0.948,0.000,3.507,0.000,0.000,35.951
2178,3.797,1.625,0.956,0.000,3.538,0.000,0.000,35.949
2196,3.799,1.625,0.964,0.000,3.569,0.000,0.000,35.932
2214,3.800,1.625,0.972,0.000,3.600,0.000,0.000,35.982
2232,3.802,1.625,0.981,0.000,3.630,0.000,0.000,35.970
2250,3.803,1.625,0.989,0.000,3.661,0.000,0.000,35.942
2268,3.805,1.625,0.997,0.000,3.692,0.000,0.000,35.935
2286,3.807,1.625,1.005,0.000,3.723,0.000,0.000,35.929
2304,3.809,1.625,1.013,0.000,3.754,0.000,0.000,35.974
2322,3.810,1.625,1.021,0.000,3.785,0.000,0.000,35.925
2340,3.812,1.625,1.029,0.000,3.816,0.000,0.000,35.977
2358,3.814,1.625,1.037,0.000,3.847,0.000,0.000,35.988
2376,3.816,1.625,1.046,0.000,3.878,0.000,0.000,35.916
2394,3.817,1.625,1.054,0.000,3.909,0.000,0.000,35.918
2412,3.819,1.625,1.062,0.000,3.940,0.000,0.000,35.971
2430,3.821,1.625,1.070,0.000,3.971,0.000,0.000,35.945
2448,3.823,1.625,1.078,0.000,4.002,0.000,0.000,35.976
2466,3.824,1.625,1.086,0.000,4.033,0.000,0.000,35.918
2484,3.826,1.625,1.094,0.000,4.064,0.000,0.000,35.923
2502,3.828,1.625,1.102,0.000,4.095,0.000,0.000,35.966
2520,3.830,1.625,1.111,0.000,4.127,0.000,0.000,35.938
2538,3.832,1.625,1.119,0.000,4.158,0.000,0.000,35.958
2556,3.834,1.625,1.127,0.000,4.189,0.000,0.000,35.946
2574,3.836,1.625,1.135,0.000,4.220,0.000,0.000,35.944
2592,3.838,1.625,1.143,0.000,4.251,0.000,0.000,35.991
2610,3.840,1.625,1.151,0.000,4.282,0.000,0.000,35.975
2628,3.842,1.625,1.159,0.000,4.314,0.000,0.000,35.965
2646,3.844,1.625,1.167,0.000,4.345,0.000,0.000,35.959
2664,3.846,1.625,1.176,0.000,4.376,0.000,0.000,35.952
2682,3.848,1.625,1.184,0.000,4.407,0.000,0.000,35.956
2700,3.850,1.625,1.192,0.000,4.439,0.000,0.000,35.980
2718,3.852,1.625,1.200,0.000,4.470,0.000,0.000,36.021
2736,3.854,1.625,1.208,0.000,4.501,0.000,0.000,35.986
2754,3.856,1.625,1.216,0.000,4.532,0.000,0.000,35.947
2772,3.858,1.625,1.224,0.000,4.564,0.000,0.000,35.985
2790,3.860,1.625,1.232,0.000,4.595,0.000,0.000,35.979
2808,3.863,1.625,1.241,0.000,4.627,0.000,0.000,35.973
2826,3.865,1.625,1.249,0.000,4.658,0.000,0.000,35.967
2844,3.867,1.625,1.257,0.000,4.689,0.000,0.000,35.967
2862,3.869,1.625,1.265,0.000,4.721,0.000,0.000,35.962
2880,3.871,1.625,1.273,0.000,4.752,0.000,0.000,35.993
2898,3.873,1.625,1.281,0.000,4.784,0.000,0.000,35.962
2916,3.876,1.625,1.289,0.000,4.815,0.000,0.000,36.072
2934,3.878,1.625,1.297,0.000,4.847,0.000,0.000,35.964
2952,3.880,1.625,1.306,0.000,4.878,0.000,0.000,35.988
2970,3.882,1.625,1.314,0.000,4.910,0.000,0.000,35.918
2988,3.885,1.625,1.322,0.000,4.941,0.000,0.000,35.923
3006,3.887,1.625,1.330,0.000,4.973,0.000,0.000,35.960
3024,3.889,1.625,1.338,0.000,5.005,0.000,0.000,35.960
3042,3.891,1.625,1.346,0.000,5.036,0.000,0.000,35.957
3060,3.894,1.625,1.354,0.000,5.068,0.000,0.000,35.951
3078,3.896,1.625,1.362,0.000,5.099,0.000,0.000,36.015
3096,3.898,1.625,1.371,0.000,5.131,0.000,0.000,35.959
3114,3.901,1.625,1.379,0.000,5.163,0.000,0.000,35.953
3132,3.903,1.625,1.387,0.000,5.194,0.000,0.000,35.980
3150,3.905,1.625,1.395,0.000,5.226,0.000,0.000,35.956
3168,3.908,1.625,1.403,0.000,5.258,0.000,0.000,35.990
3186,3.910,1.625,1.411,0.000,5.290,0.000,0.000,35.967
3204,3.912,1.625,1.419,0.000,5.322,0.000,0.000,35.932
3222,3.915,1.625,1.428,0.000,5.353,0.000,0.000,35.962
3240,3.917,1.625,1.436,0.000,5.385,0.000,0.000,35.980
3258,3.920,1.625,1.444,0.000,5.417,0.000,0.000,35.947
3276,3.922,1.625,1.452,0.000,5.449,0.000,0.000,35.947
3294,3.924,1.625,1.460,0.000,5.481,0.000,0.000,35.950
3312,3.927,1.625,1.468,0.000,5.513,0.000,0.000,35.935
3330,3.929,1.625,1.476,0.000,5.545,0.000,0.000,35.932
3348,3.932,1.625,1.484,0.000,5.576,0.000,0.000,35.912
3366,3.934,1.625,1.493,0.000,5.608,0.000,0.000,35.948
3384,3.936,1.625,1.501,0.000,5.640,0.000,0.000,35.948
3402,3.939,1.625,1.509,0.000,5.672,0.000,0.000,35.909
3420,3.941,1.625,1.517,0.000,5.704,0.000,0.000,35.929
3438,3.944,1.625,1.525,0.000,5.736,0.000,0.000,35.999
3456,3.946,1.625,1.533,0.000,5.769,0.000,0.000,35.899
3474,3.948,1.625,1.541,0.000,5.801,0.000,0.000,35.911
3492,3.951,1.625,1.549,0.000,5.833,0.000,0.000,35.931
3510,3.953,1.625,1.558,0.000,5.865,0.000,0.000,35.909
3528,3.955,1.625,1.566,0.000,5.897,0.000,0.000,35.930
3546,3.958,1.625,1.574,0.000,5.929,0.000,0.000,35.920
3564,3.960,1.625,1.582,0.000,5.961,0.000,0.000,35.869
3582,3.963,1.625,1.590,0.000,5.993,0.000,0.000,35.909
3600,3.965,1.625,1.598,0.000,6.026,0.000,0.000,35.919
3618,3.968,1.625,1.606,0.000,6.058,0.000,0.000,35.902
3636,3.970,1.625,1.614,0.000,6.090,0.000,0.000,35.895
3654,3.972,1.625,1.623,0.000,6.122,0.000,0.000,35.855
3672,3.975,1.625,1.631,0.000,6.155,0.000,0.000,35.927
3690,3.977,1.625,1.639,0.000,6.187,0.000,0.000,35.902
3708,3.979,1.625,1.647,0.000,6.219,0.000,0.000,35.870
3726,3.982,1.625,1.655,0.000,6.252,0.000,0.000,35.923
3744,3.984,1.625,1.663,0.000,6.284,0.000,0.000,35.876
3762,3.987,1.625,1.671,0.000,6.316,0.000,0.000,35.864
3780,3.989,1.625,1.679,0.000,6.349,0.000,0.000,35.833
3798,3.991,1.625,1.688,0.000,6.381,0.000,0.000,35.826
3816,3.994,1.625,1.696,0.000,6.414,0.000,0.000,35.864
3834,3.996,1.625,1.704,0.000,6.446,0.000,0.000,35.878
3852,3.998,1.625,1.712,0.000,6.479,0.000,0.000,35.850
3870,4.001,1.625,1.720,0.000,6.511,0.000,0.000,35.831
3888,4.003,1.625,1.728,0.000,6.544,0.000,0.000,35.827
3906,4.005,1.625,1.736,0.000,6.576,0.000,0.000,35.808
3924,4.008,1.625,1.744,0.000,6.609,0.000,0.000,35.844
3942,4.010,1.625,1.753,0.000,6.641,0.000,0.000,35.842
3960,4.012,1.625,1.761,0.000,6.674,0.000,0.000,35.822
3978,4.015,1.625,1.769,0.000,6.707,0.000,0.000,35.835
3996,4.017,1.625,1.777,0.000,6.739,0.000,0.000,35.828
4014,4.019,1.625,1.785,0.000,6.772,0.000,0.000,35.805
4032,4.021,1.625,1.793,0.000,6.805,0.000,0.000,35.772
4050,4.024,1.625,1.801,0.000,6.837,0.000,0.000,35.815
4068,4.026,1.625,1.809,0.000,6.870,0.000,0.000,35.829
4086,4.028,1.625,1.818,0.000,6.903,0.000,0.000,35.808
4104,4.031,1.625,1.826,0.000,6.935,0.000,0.000,35.807
4122,4.033,1.625,1.834,0.000,6.968,0.000,0.000,35.806
4140,4.035,1.625,1.842,0.000,7.001,0.000,0.000,35.810
4158,4.038,1.625,1.850,0.000,7.034,0.000,0.000,35.810
4176,4.040,1.625,1.858,0.000,7.067,0.000,0.000,35.809
4194,4.042,1.625,1.866,0.000,7.099,0.000,0.000,35.821
4212,4.045,1.625,1.874,0.000,7.132,0.000,0.000,35.861
4230,4.047,1.625,1.883,0.000,7.165,0.000,0.000,35.796
4248,4.049,1.625,1.891,0.000,7.198,0.000,0.000,35.811
4266,4.052,1.625,1.899,0.000,7.231,0.000,0.000,35.810
4284,4.054,1.625,1.907,0.000,7.264,0.000,0.000,35.828
4302,4.056,1.625,1.915,0.000,7.297,0.000,0.000,35.849
4320,4.059,1.625,1.923,0.000,7.330,0.000,0.000,35.836
4338,4.061,1.625,1.931,0.000,7.363,0.000,0.000,35.858
4356,4.063,1.625,1.939,0.000,7.396,0.000,0.000,35.840
4374,4.066,1.625,1.948,0.000,7.429,0.000,0.000,35.801
4392,4.068,1.625,1.956,0.000,7.462,0.000,0.000,35.817
4410,4.071,1.625,1.964,0.000,7.495,0.000,0.000,35.820
4428,4.073,1.625,1.972,0.000,7.528,0.000,0.000,35.822
4446,4.076,1.625,1.980,0.000,7.561,0.000,0.000,35.865
4464,4.078,1.625,1.988,0.000,7.594,0.000,0.000,35.837
4482,4.081,1.625,1.996,0.000,7.627,0.000,0.000,35.863
4500,4.083,1.625,2.004,0.000,7.661,0.000,0.000,35.830
4518,4.086,1.625,2.013,0.000,7.694,0.000,0.000,35.878
4536,4.088,1.625,2.021,0.000,7.727,0.000,0.000,35.866
4554,4.091,1.625,2.029,0.000,7.760,0.000,0.000,35.837
4572,4.094,1.625,2.037,0.000,7.793,0.000,0.000,35.885
4590,4.096,1.625,2.045,0.000,7.827,0.000,0.000,35.875
4608,4.099,1.625,2.053,0.000,7.860,0.000,0.000,35.836
4626,4.102,1.625,2.061,0.000,7.893,0.000,0.000,35.879
4644,4.104,1.625,2.069,0.000,7.927,0.000,0.000,35.909
4662,4.107,1.625,2.078,0.000,7.960,0.000,0.000,35.900
4680,4.110,1.625,2.086,0.000,7.993,0.000,0.000,35.891
4698,4.113,1.625,2.094,0.000,8.027,0.000,0.000,35.901
4716,4.115,1.625,2.102,0.000,8.060,0.000,0.000,35.905
4734,4.118,1.625,2.110,0.000,8.094,0.000,0.000,35.886
4752,4.121,1.625,2.118,0.000,8.127,0.000,0.000,35.910
4770,4.124,1.625,2.126,0.000,8.161,0.000,0.000,35.884
4788,4.127,1.625,2.134,0.000,8.194,0.000,0.000,35.891
4806,4.130,1.625,2.143,0.000,8.228,0.000,0.000,35.897
4824,4.133,1.625,2.151,0.000,8.261,0.000,0.000,35.927
4842,4.136,1.625,2.159,0.000,8.295,0.000,0.000,35.906
4860,4.139,1.625,2.167,0.000,8.329,0.000,0.000,35.917
4878,4.142,1.625,2.175,0.000,8.362,0.000,0.000,35.931
4896,4.145,1.625,2.183,0.000,8.396,0.000,0.000,35.946
4914,4.149,1.625,2.191,0.000,8.430,0.000,0.000,35.942
4932,4.152,1.625,2.200,0.000,8.463,0.000,0.000,35.958
4950,4.155,1.625,2.208,0.000,8.497,0.000,0.000,35.909
4968,4.158,1.625,2.216,0.000,8.531,0.000,0.000,35.943
4986,4.161,1.625,2.224,0.000,8.565,0.000,0.000,35.945
5004,4.165,1.625,2.232,0.000,8.599,0.000,0.000,35.928
5022,4.168,1.625,2.240,0.000,8.632,0.000,0.000,35.972
5040,4.171,1.625,2.248,0.000,8.666,0.000,0.000,35.999
5058,4.174,1.625,2.256,0.000,8.700,0.000,0.000,36.022
5076,4.178,1.625,2.265,0.000,8.734,0.000,0.000,36.000
5094,4.181,1.625,2.273,0.000,8.768,0.000,0.000,35.961
5112,4.184,1.625,2.281,0.000,8.802,0.000,0.000,36.021
5130,4.188,1.625,2.289,0.000,8.836,0.000,0.000,35.981
5148,4.191,1.625,2.297,0.000,8.870,0.000,0.000,36.017
5166,4.194,1.625,2.305,0.000,8.904,0.000,0.000,35.976
5184,4.198,1.625,2.313,0.000,8.938,0.000,0.000,36.013
5202,4.200,1.610,2.321,0.000,8.972,0.000,0.000,36.022
5220,4.200,1.565,2.329,0.000,9.006,0.000,0.000,35.983
5238,4.200,1.528,2.337,0.000,9.038,0.000,0.000,36.019
5256,4.200,1.495,2.345,0.000,9.070,0.000,0.000,36.058
5274,4.200,1.465,2.352,0.000,9.101,0.000,0.000,36.014
5292,4.200,1.437,2.359,0.000,9.131,0.000,0.000,36.062
5310,4.200,1.408,2.366,0.000,9.161,0.000,0.000,35.993
5328,4.200,1.382,2.373,0.000,9.191,0.000,0.000,35.976
5346,4.200,1.357,2.380,0.000,9.219,0.000,0.000,35.950
5364,4.200,1.332,2.387,0.000,9.248,0.000,0.000,35.961
5382,4.200,1.310,2.394,0.000,9.275,0.000,0.000,35.919
5400,4.200,1.286,2.400,0.000,9.303,0.000,0.000,35.940
5418,4.200,1.265,2.406,0.000,9.329,0.000,0.000,35.898
5436,4.200,1.243,2.413,0.000,9.356,0.000,0.000,35.879
5454,4.200,1.222,2.419,0.000,9.382,0.000,0.000,35.905
5472,4.200,1.201,2.425,0.000,9.407,0.000,0.000,35.901
5490,4.200,1.182,2.431,0.000,9.432,0.000,0.000,35.862
5508,4.200,1.162,2.437,0.000,9.457,0.000,0.000,35.857
5526,4.200,1.144,2.442,0.000,9.481,0.000,0.000,35.829
5544,4.200,1.125,2.448,0.000,9.505,0.000,0.000,35.823
5562,4.200,1.107,2.454,0.000,9.528,0.000,0.000,35.817
5580,4.200,1.090,2.459,0.000,9.551,0.000,0.000,35.755
5598,4.200,1.073,2.465,0.000,9.574,0.000,0.000,35.727
5616,4.200,1.057,2.470,0.000,9.596,0.000,0.000,35.746
5634,4.200,1.041,2.475,0.000,9.618,0.000,0.000,35.693
5652,4.200,1.025,2.480,0.000,9.640,0.000,0.000,35.702
5670,4.200,1.009,2.485,0.000,9.661,0.000,0.000,35.637
5688,4.200,0.994,2.490,0.000,9.682,0.000,0.000,35.610
5706,4.200,0.981,2.495,0.000,9.703,0.000,0.000,35.626
5724,4.200,0.966,2.500,0.000,9.723,0.000,0.000,35.627
5742,4.200,0.953,2.505,0.000,9.744,0.000,0.000,35.561
5760,4.200,0.939,2.510,0.000,9.763,0.000,0.000,35.586
5778,4.200,0.926,2.514,0.000,9.783,0.000,0.000,35.570
5796,4.200,0.914,2.519,0.000,9.802,0.000,0.000,35.545
5814,4.200,0.901,2.524,0.000,9.821,0.000,0.000,35.543
5832,4.200,0.888,2.528,0.000,9.840,0.000,0.000,35.548
5850,4.200,0.876,2.532,0.000,9.859,0.000,0.000,35.479
5868,4.200,0.865,2.537,0.000,9.877,0.000,0.000,35.470
5886,4.200,0.853,2.541,0.000,9.895,0.000,0.000,35.484
5904,4.200,0.842,2.545,0.000,9.913,0.000,0.000,35.493
5922,4.200,0.831,2.549,0.000,9.930,0.000,0.000,35.401
5940,4.200,0.820,2.554,0.000,9.948,0.000,0.000,35.414
5958,4.200,0.809,2.558,0.000,9.965,0.000,0.000,35.394
5976,4.200,0.798,2.562,0.000,9.982,0.000,0.000,35.382
5994,4.200,0.788,2.566,0.000,9.998,0.000,0.000,35.367
6012,4.200,0.778,2.570,0.000,10.015,0.000,0.000,35.349
6030,4.200,0.768,2.573,0.000,10.031,0.000,0.000,35.340
6048,4.200,0.758,2.577,0.000,10.047,0.000,0.000,35.324
6066,4.200,0.748,2.581,0.000,10.063,0.000,0.000,35.292
6084,4.200,0.737,2.585,0.000,10.078,0.000,0.000,35.296
6102,4.200,0.729,2.588,0.000,10.094,0.000,0.000,35.285
6120,4.200,0.719,2.592,0.000,10.109,0.000,0.000,35.250
6138,4.200,0.710,2.596,0.000,10.124,0.000,0.000,35.265
6156,4.200,0.700,2.599,0.000,10.139,0.000,0.000,35.252
6174,4.200,0.691,2.603,0.000,10.153,0.000,0.000,35.238
6192,4.200,0.682,2.606,0.000,10.168,0.000,0.000,35.180
6210,4.200,0.674,2.609,0.000,10.182,0.000,0.000,35.192
6228,4.200,0.664,2.613,0.000,10.196,0.000,0.000,35.209
6246,4.200,0.655,2.616,0.000,10.210,0.000,0.000,35.185
6264,4.200,0.647,2.619,0.000,10.224,0.000,0.000,35.212
6282,4.200,0.639,2.623,0.000,10.237,0.000,0.000,35.193
6300,4.200,0.629,2.626,0.000,10.250,0.000,0.000,35.162
6318,4.200,0.621,2.629,0.000,10.264,0.000,0.000,35.146
6336,4.200,0.614,2.632,0.000,10.277,0.000,0.000,35.144
6354,4.200,0.605,2.635,0.000,10.289,0.000,0.000,35.114
6372,4.200,0.597,2.638,0.000,10.302,0.000,0.000,35.149
6390,4.200,0.588,2.641,0.000,10.314,0.000,0.000,35.078
6408,4.200,0.581,2.644,0.000,10.327,0.000,0.000,35.100
6426,4.200,0.573,2.647,0.000,10.339,0.000,0.000,35.061
6444,4.200,0.565,2.650,0.000,10.351,0.000,0.000,35.031
6462,4.200,0.557,2.652,0.000,10.362,0.000,0.000,35.044
6480,4.200,0.550,2.655,0.000,10.374,0.000,0.000,35.072
6498,4.200,0.541,2.658,0.000,10.386,0.000,0.000,35.053
6516,4.200,0.534,2.661,0.000,10.397,0.000,0.000,35.051
6534,4.200,0.526,2.663,0.000,10.408,0.000,0.000,35.049
6552,4.200,0.519,2.666,0.000,10.419,0.000,0.000,35.022
6570,4.200,0.512,2.668,0.000,10.430,0.000,0.000,35.060
6588,4.200,0.504,2.671,0.000,10.440,0.000,0.000,35.042
6606,4.200,0.497,2.673,0.000,10.451,0.000,0.000,35.059
6624,4.200,0.489,2.676,0.000,10.461,0.000,0.000,35.004
6642,4.200,0.482,2.678,0.000,10.471,0.000,0.000,34.978
6660,4.200,0.475,2.681,0.000,10.481,0.000,0.000,34.975
6678,4.200,0.468,2.683,0.000,10.491,0.000,0.000,34.985
6696,4.200,0.461,2.685,0.000,10.501,0.000,0.000,34.986
6714,4.200,0.454,2.688,0.000,10.511,0.000,0.000,34.947
6732,4.200,0.447,2.690,0.000,10.520,0.000,0.000,34.952
6750,4.200,0.440,2.692,0.000,10.529,0.000,0.000,34.974
6768,4.200,0.434,2.694,0.000,10.539,0.000,0.000,34.938
6786,4.200,0.427,2.696,0.000,10.548,0.000,0.000,34.944
6804,4.200,0.420,2.699,0.000,10.557,0.000,0.000,34.927
6822,4.200,0.414,2.701,0.000,10.565,0.000,0.000,34.970
6840,4.200,0.408,2.703,0.000,10.574,0.000,0.000,34.960
6858,4.200,0.401,2.705,0.000,10.582,0.000,0.000,34.929
6876,4.200,0.394,2.707,0.000,10.591,0.000,0.000,34.920
6894,4.200,0.388,2.709,0.000,10.599,0.000,0.000,34.899
6912,4.200,0.382,2.711,0.000,10.607,0.000,0.000,34.879
6930,4.200,0.376,2.713,0.000,10.615,0.000,0.000,34.885
6948,4.200,0.370,2.714,0.000,10.623,0.000,0.000,34.867
6966,4.200,0.365,2.716,0.000,10.631,0.000,0.000,34.857
6984,4.200,0.358,2.718,0.000,10.638,0.000,0.000,34.844
7002,4.200,0.353,2.720,0.000,10.646,0.000,0.000,34.842
7020,4.200,0.347,2.722,0.000,10.653,0.000,0.000,34.801
7038,4.200,0.341,2.723,0.000,10.660,0.000,0.000,34.838
7056,4.200,0.336,2.725,0.000,10.667,0.000,0.000,34.801
7074,4.200,0.330,2.727,0.000,10.674,0.000,0.000,34.870
7092,4.200,0.325,2.728,0.000,10.681,0.000,0.000,34.825
7110,4.200,0.320,2.730,0.000,10.688,0.000,0.000,34.806
7128,4.200,0.314,2.731,0.000,10.695,0.000,0.000,34.786
7146,4.200,0.309,2.733,0.000,10.701,0.000,0.000,34.782
7164,4.200,0.304,2.735,0.000,10.708,0.000,0.000,34.823
7182,4.200,0.298,2.736,0.000,10.714,0.000,0.000,34.819
7200,4.200,0.294,2.738,0.000,10.720,0.000,0.000,34.763
7218,4.200,0.289,2.739,0.000,10.726,0.000,0.000,34.820
7236,4.200,0.284,2.740,0.000,10.732,0.000,0.000,34.784
7254,4.200,0.280,2.742,0.000,10.738,0.000,0.000,34.771
7272,4.200,0.274,2.743,0.000,10.744,0.000,0.000,34.814
7290,4.200,0.270,2.745,0.000,10.750,0.000,0.000,34.761
7308,4.200,0.266,2.746,0.000,10.755,0.000,0.000,34.795
7326,4.200,0.260,2.747,0.000,10.761,0.000,0.000,34.763
7344,4.200,0.256,2.749,0.000,10.766,0.000,0.000,34.772
7362,4.200,0.252,2.750,0.000,10.772,0.000,0.000,34.763
7380,4.200,0.247,2.751,0.000,10.777,0.000,0.000,34.747
7398,4.200,0.243,2.752,0.000,10.782,0.000,0.000,34.762
7416,4.200,0.239,2.753,0.000,10.787,0.000,0.000,34.736
7434,4.200,0.235,2.755,0.000,10.792,0.000,0.000,34.747
7452,4.200,0.232,2.756,0.000,10.797,0.000,0.000,34.716
7470,4.200,0.227,2.757,0.000,10.802,0.000,0.000,34.723
7488,4.200,0.223,2.758,0.000,10.806,0.000,0.000,34.736
7506,4.200,0.220,2.759,0.000,10.811,0.000,0.000,34.709
7524,4.200,0.215,2.760,0.000,10.816,0.000,0.000,34.748
7542,4.200,0.211,2.761,0.000,10.820,0.000,0.000,34.715
7560,4.200,0.208,2.762,0.000,10.825,0.000,0.000,34.743
7578,4.200,0.204,2.763,0.000,10.829,0.000,0.000,34.712
7596,4.200,0.201,2.764,0.000,10.833,0.000,0.000,34.737
7614,4.200,0.197,2.765,0.000,10.837,0.000,0.000,34.731
7632,4.200,0.194,2.766,0.000,10.841,0.000,0.000,34.677
7650,4.200,0.190,2.767,0.000,10.845,0.000,0.000,34.673
7668,4.200,0.187,2.768,0.000,10.849,0.000,0.000,34.714
7686,4.200,0.184,2.769,0.000,10.853,0.000,0.000,34.705
7704,4.200,0.180,2.770,0.000,10.857,0.000,0.000,34.705
7722,4.200,0.178,2.771,0.000,10.861,0.000,0.000,34.718
7740,4.200,0.174,2.772,0.000,10.865,0.000,0.000,34.671
7758,4.200,0.172,2.773,0.000,10.868,0.000,0.000,34.643
7776,4.200,0.169,2.774,0.000,10.872,0.000,0.000,34.692
7794,4.200,0.165,2.774,0.000,10.875,0.000,0.000,34.674
7812,4.200,0.163,2.775,0.000,10.879,0.000,0.000,34.664
7830,4.200,0.160,2.776,0.000,10.882,0.000,0.000,34.650
7848,4.200,0.157,2.777,0.000,10.886,0.000,0.000,34.639
7866,4.200,0.155,2.778,0.000,10.889,0.000,0.000,34.667
7884,4.200,0.152,2.778,0.000,10.892,0.000,0.000,34.661
7902,4.200,0.149,2.779,0.000,10.895,0.000,0.000,34.664
7920,4.200,0.147,2.780,0.000,10.898,0.000,0.000,34.606
7938,4.200,0.144,2.781,0.000,10.901,0.000,0.000,34.669
7956,4.200,0.142,2.781,0.000,10.904,0.000,0.000,34.650
7974,4.200,0.139,2.782,0.000,10.907,0.000,0.000,34.673
7992,4.200,0.137,2.783,0.000,10.910,0.000,0.000,34.711
8010,4.200,0.135,2.783,0.000,10.913,0.000,0.000,34.647
8028,4.200,0.132,2.784,0.000,10.916,0.000,0.000,34.675
8046,4.200,0.130,2.785,0.000,10.919,0.000,0.000,34.647
8064,4.200,0.128,2.785,0.000,10.921,0.000,0.000,34.637
8082,4.200,0.125,2.786,0.000,10.924,0.000,0.000,34.592
8100,4.200,0.123,2.787,0.000,10.927,0.000,0.000,34.638
8118,4.200,0.121,2.787,0.000,10.929,0.000,0.000,34.620
8136,4.200,0.119,2.788,0.000,10.932,0.000,0.000,34.619
8154,4.200,0.118,2.788,0.000,10.934,0.000,0.000,34.606
8172,4.200,0.115,2.789,0.000,10.937,0.000,0.000,34.600
8190,4.200,0.113,2.790,0.000,10.939,0.000,0.000,34.663
8208,4.200,0.111,2.790,0.000,10.941,0.000,0.000,34.667
8226,4.200,0.109,2.791,0.000,10.944,0.000,0.000,34.624
8244,4.200,0.108,2.791,0.000,10.946,0.000,0.000,34.630
8262,4.200,0.106,2.792,0.000,10.948,0.000,0.000,34.635
8280,4.200,0.104,2.792,0.000,10.950,0.000,0.000,34.634
8298,4.200,0.102,2.793,0.000,10.952,0.000,0.000,34.613
8316,4.200,0.101,2.793,0.000,10.955,0.000,0.000,34.630
8334,4.200,0.099,2.794,0.000,10.957,0.000,0.000,34.643
8352,4.200,0.097,2.794,0.000,10.959,0.000,0.000,34.630
8370,4.200,0.095,2.795,0.000,10.961,0.000,0.000,34.664
8388,4.200,0.094,2.795,0.000,10.963,0.000,0.000,34.660
8406,4.200,0.093,2.796,0.000,10.965,0.000,0.000,34.642
8424,4.200,0.091,2.796,0.000,10.967,0.000,0.000,34.598
8442,4.200,0.090,2.797,0.000,10.969,0.000,0.000,34.598
8460,4.200,0.088,2.797,0.000,10.970,0.000,0.000,34.634
8478,4.200,0.087,2.798,0.000,10.972,0.000,0.000,34.631
8496,4.200,0.085,2.798,0.000,10.974,0.000,0.000,34.602
8514,4.200,0.084,2.798,0.000,10.976,0.000,0.000,34.602
8532,4.200,0.083,2.799,0.000,10.978,0.000,0.000,34.605
8550,4.200,0.081,2.799,0.000,10.979,0.000,0.000,34.633
8568,4.200,0.080,2.800,0.000,10.981,0.000,0.000,34.619
8586,4.200,0.079,2.800,0.000,10.983,0.000,0.000,34.599
8604,4.200,0.077,2.800,0.000,10.984,0.000,0.000,34.575
8622,4.200,0.077,2.801,0.000,10.986,0.000,0.000,34.607
8640,4.200,0.075,2.801,0.000,10.988,0.000,0.000,34.643
8658,4.200,0.074,2.802,0.000,10.989,0.000,0.000,34.608
8676,4.200,0.072,2.802,0.000,10.991,0.000,0.000,34.621
8694,4.200,0.071,2.802,0.000,10.992,0.000,0.000,34.599
8712,4.200,0.070,2.803,0.000,10.994,0.000,0.000,34.638
8730,4.200,0.070,2.803,0.000,10.995,0.000,0.000,34.582
8748,4.200,0.068,2.803,0.000,10.997,0.000,0.000,34.600
8766,4.200,0.068,2.804,0.000,10.998,0.000,0.000,34.624
8784,4.200,0.066,2.804,0.000,10.999,0.000,0.000,34.612
8802,4.195,0.000,2.804,0.000,11.000,0.000,0.000,34.609
8820,4.194,0.000,2.804,0.000,11.000,0.000,0.000,34.581
8838,4.194,0.000,2.804,0.000,11.000,0.000,0.000,34.605
8856,4.193,0.000,2.804,0.000,11.000,0.000,0.000,34.650
8874,4.193,0.000,2.804,0.000,11.000,0.000,0.000,34.583
8892,4.193,0.000,2.804,0.000,11.000,0.000,0.000,34.575
8910,4.193,0.000,2.804,0.000,11.000,0.000,0.000,34.616
8928,4.192,0.000,2.804,0.000,11.000,0.000,0.000,34.550
8946,4.192,0.000,2.804,0.000,11.000,0.000,0.000,34.584
8964,4.192,0.000,2.804,0.000,11.000,0.000,0.000,34.591
8982,4.192,0.000,2.804,0.000,11.000,0.000,0.000,34.570
9000,4.191,0.000,2.804,0.000,11.000,0.000,0.000,34.584
9018,4.191,0.000,2.804,0.000,11.000,0.000,0.000,34.599
9036,4.191,0.000,2.804,0.000,11.000,0.000,0.000,34.619
9054,4.191,0.000,2.804,0.000,11.000,0.000,0.000,34.639
9072,4.191,0.000,2.804,0.000,11.000,0.000,0.000,34.573
9090,4.190,0.000,2.804,0.000,11.000,0.000,0.000,34.627
9108,4.190,0.000,2.804,0.000,11.000,0.000,0.000,34.576
9126,4.190,0.000,2.804,0.000,11.000,0.000,0.000,34.601
9144,4.190,0.000,2.804,0.000,11.000,0.000,0.000,34.560
9162,4.190,0.000,2.804,0.000,11.000,0.000,0.000,34.601
9180,4.190,0.000,2.804,0.000,11.000,0.000,0.000,34.585
9198,4.190,0.000,2.804,0.000,11.000,0.000,0.000,34.556
9216,4.190,0.000,2.804,0.000,11.000,0.000,0.000,34.608
9234,4.189,0.000,2.804,0.000,11.000,0.000,0.000,34.585
9252,4.189,0.000,2.804,0.000,11.000,0.000,0.000,34.569
9270,4.189,0.000,2.804,0.000,11.000,0.000,0.000,34.602
9288,4.189,0.000,2.804,0.000,11.000,0.000,0.000,34.567
9306,4.189,0.000,2.804,0.000,11.000,0.000,0.000,34.569
9324,4.189,0.000,2.804,0.000,11.000,0.000,0.000,34.570
9342,4.189,0.000,2.804,0.000,11.000,0.000,0.000,34.594
9360,4.189,0.000,2.804,0.000,11.000,0.000,0.000,34.556
9378,4.188,0.000,2.804,0.000,11.000,0.000,0.000,34.564
9396,4.188,0.000,2.804,0.000,11.000,0.000,0.000,34.565
9414,4.188,0.000,2.804,0.000,11.000,0.000,0.000,34.559
9432,4.188,0.000,2.804,0.000,11.000,0.000,0.000,34.544
9450,4.188,0.000,2.804,0.000,11.000,0.000,0.000,34.550
9468,4.188,0.000,2.804,0.000,11.000,0.000,0.000,34.590
9486,4.188,0.000,2.804,0.000,11.000,0.000,0.000,34.543
9504,4.188,0.000,2.804,0.000,11.000,0.000,0.000,34.565
9522,4.188,0.000,2.804,0.000,11.000,0.000,0.000,34.573
9540,4.188,0.000,2.804,0.000,11.000,0.000,0.000,34.582
9558,4.188,0.000,2.804,0.000,11.000,0.000,0.000,34.520
9576,4.187,0.000,2.804,0.000,11.000,0.000,0.000,34.591
9594,4.188,0.000,2.804,0.000,11.000,0.000,0.000,34.560
9612,4.187,0.000,2.804,0.000,11.000,0.000,0.000,34.552
9630,4.187,0.000,2.804,0.000,11.000,0.000,0.000,34.519
9648,4.187,0.000,2.804,0.000,11.000,0.000,0.000,34.546
9666,4.187,0.000,2.804,0.000,11.000,0.000,0.000,34.579
9684,4.187,0.000,2.804,0.000,11.000,0.000,0.000,34.555
9702,4.187,0.000,2.804,0.000,11.000,0.000,0.000,34.558
9720,4.187,0.000,2.804,0.000,11.000,0.000,0.000,34.570
9738,4.187,0.000,2.804,0.000,11.000,0.000,0.000,34.582
9756,4.187,0.000,2.804,0.000,11.000,0.000,0.000,34.568
9774,4.187,0.000,2.804,0.000,11.000,0.000,0.000,34.577
9792,4.187,0.000,2.804,0.000,11.000,0.000,0.000,34.577
9810,4.187,0.000,2.804,0.000,11.000,0.000,0.000,34.596
9828,4.187,0.000,2.804,0.000,11.000,0.000,0.000,34.587
9846,4.186,0.000,2.804,0.000,11.000,0.000,0.000,34.556
9864,4.186,0.000,2.804,0.000,11.000,0.000,0.000,34.588
9882,4.186,0.000,2.804,0.000,11.000,0.000,0.000,34.596
9900,4.186,0.000,2.804,0.000,11.000,0.000,0.000,34.573
9918,4.186,0.000,2.804,0.000,11.000,0.000,0.000,34.576
9936,4.186,0.000,2.804,0.000,11.000,0.000,0.000,34.594
9954,4.186,0.000,2.804,0.000,11.000,0.000,0.000,34.559
9972,4.186,0.000,2.804,0.000,11.000,0.000,0.000,34.562
9990,4.186,0.000,2.804,0.000,11.000,0.000,0.000,34.560
10008,4.186,0.000,2.804,0.000,11.000,0.000,0.000,34.574
10026,4.186,0.000,2.804,0.000,11.000,0.000,0.000,34.542
10044,4.186,0.000,2.804,0.000,11.000,0.000,0.000,34.587
10062,4.186,0.000,2.804,0.000,11.000,0.000,0.000,34.565
10080,4.186,0.000,2.804,0.000,11.000,0.000,0.000,34.575
10098,4.186,0.000,2.804,0.000,11.000,0.000,0.000,34.597
10116,4.185,0.000,2.804,0.000,11.000,0.000,0.000,34.546
10134,4.186,0.000,2.804,0.000,11.000,0.000,0.000,34.585
10152,4.185,0.000,2.804,0.000,11.000,0.000,0.000,34.585
10170,4.185,0.000,2.804,0.000,11.000,0.000,0.000,34.578
10188,4.185,0.000,2.804,0.000,11.000,0.000,0.000,34.536
10206,4.185,0.000,2.804,0.000,11.000,0.000,0.000,34.583
10224,4.185,0.000,2.804,0.000,11.000,0.000,0.000,34.576
10242,4.185,0.000,2.804,0.000,11.000,0.000,0.000,34.571
10260,4.185,0.000,2.804,0.000,11.000,0.000,0.000,34.611
10278,4.185,0.000,2.804,0.000,11.000,0.000,0.000,34.563
10296,4.185,0.000,2.804,0.000,11.000,0.000,0.000,34.601
10314,4.185,0.000,2.804,0.000,11.000,0.000,0.000,34.551
10332,4.185,0.000,2.804,0.000,11.000,0.000,0.000,34.564
10350,4.185,0.000,2.804,0.000,11.000,0.000,0.000,34.552
10368,4.185,0.000,2.804,0.000,11.000,0.000,0.000,34.555
10386,4.185,0.000,2.804,0.000,11.000,0.000,0.000,34.577
10404,4.185,0.000,2.804,0.000,11.000,0.000,0.000,34.570
10422,4.184,0.000,2.804,0.000,11.000,0.000,0.000,34.557
10440,4.185,0.000,2.804,0.000,11.000,0.000,0.000,34.574
10458,4.185,0.000,2.804,0.000,11.000,0.000,0.000,34.569
10476,4.185,0.000,2.804,0.000,11.000,0.000,0.000,34.556
10494,4.184,0.000,2.804,0.000,11.000,0.000,0.000,34.537
10512,4.185,0.000,2.804,0.000,11.000,0.000,0.000,34.544
10530,4.185,0.000,2.804,0.000,11.000,0.000,0.000,34.569
10548,4.184,0.000,2.804,0.000,11.000,0.000,0.000,34.575
10566,4.184,0.000,2.804,0.000,11.000,0.000,0.000,34.569
10584,4.185,0.000,2.804,0.000,11.000,0.000,0.000,34.568
10602,4.184,0.000,2.804,0.000,11.000,0.000,0.000,34.571
10620,4.184,0.000,2.804,0.000,11.000,0.000,0.000,34.595
10638,4.184,0.000,2.804,0.000,11.000,0.000,0.000,34.609
10656,4.184,0.000,2.804,0.000,11.000,0.000,0.000,34.599
10674,4.184,0.000,2.804,0.000,11.000,0.000,0.000,34.549
10692,4.184,0.000,2.804,0.000,11.000,0.000,0.000,34.585
10710,4.184,0.000,2.804,0.000,11.000,0.000,0.000,34.563
10728,4.184,0.000,2.804,0.000,11.000,0.000,0.000,34.567
10746,4.184,0.000,2.804,0.000,11.000,0.000,0.000,34.549
10764,4.184,0.000,2.804,0.000,11.000,0.000,0.000,34.562
10782,4.184,0.000,2.804,0.000,11.000,0.000,0.000,34.537
10800,4.184,0.000,2.804,0.000,11.000,0.000,0.000,34.605
10818,4.184,0.000,2.804,0.000,11.000,0.000,0.000,34.561
10836,4.184,0.000,2.804,0.000,11.000,0.000,0.000,34.561
10854,4.184,0.000,2.804,0.000,11.000,0.000,0.000,34.596
10872,4.184,0.000,2.804,0.000,11.000,0.000,0.000,34.595
10890,4.184,0.000,2.804,0.000,11.000,0.000,0.000,34.554
10908,4.184,0.000,2.804,0.000,11.000,0.000,0.000,34.569
10926,4.184,0.000,2.804,0.000,11.000,0.000,0.000,34.567
10944,4.184,0.000,2.804,0.000,11.000,0.000,0.000,34.573
10962,4.183,0.000,2.804,0.000,11.000,0.000,0.000,34.557
10980,4.184,0.000,2.804,0.000,11.000,0.000,0.000,34.550
10998,4.184,0.000,2.804,0.000,11.000,0.000,0.000,34.560
11016,4.183,0.000,2.804,0.000,11.000,0.000,0.000,34.560
11034,4.184,0.000,2.804,0.000,11.000,0.000,0.000,34.570
11052,4.183,0.000,2.804,0.000,11.000,0.000,0.000,34.533
11070,4.183,0.000,2.804,0.000,11.000,0.000,0.000,34.577
11088,4.184,0.000,2.804,0.000,11.000,0.000,0.000,34.539
11106,4.183,0.000,2.804,0.000,11.000,0.000,0.000,34.614
11124,4.183,0.000,2.804,0.000,11.000,0.000,0.000,34.563
11142,4.183,0.000,2.804,0.000,11.000,0.000,0.000,34.561
11160,4.183,0.000,2.804,0.000,11.000,0.000,0.000,34.601
11178,4.183,0.000,2.804,0.000,11.000,0.000,0.000,34.572
11196,4.183,0.000,2.804,0.000,11.000,0.000,0.000,34.577
11214,4.183,0.000,2.804,0.000,11.000,0.000,0.000,34.578
11232,4.183,0.000,2.804,0.000,11.000,0.000,0.000,34.576
11250,4.183,0.000,2.804,0.000,11.000,0.000,0.000,34.566
11268,4.183,0.000,2.804,0.000,11.000,0.000,0.000,34.573
11286,4.183,0.000,2.804,0.000,11.000,0.000,0.000,34.567
11304,4.183,0.000,2.804,0.000,11.000,0.000,0.000,34.564
11322,4.183,0.000,2.804,0.000,11.000,0.000,0.000,34.545
11340,4.183,0.000,2.804,0.000,11.000,0.000,0.000,34.554
11358,4.183,0.000,2.804,0.000,11.000,0.000,0.000,34.598
11376,4.183,0.000,2.804,0.000,11.000,0.000,0.000,34.539
11394,4.183,0.000,2.804,0.000,11.000,0.000,0.000,34.525
11412,4.183,0.000,2.804,0.000,11.000,0.000,0.000,34.547
11430,4.183,0.000,2.804,0.000,11.000,0.000,0.000,34.538
11448,4.183,0.000,2.804,0.000,11.000,0.000,0.000,34.573
11466,4.183,0.000,2.804,0.000,11.000,0.000,0.000,34.568
11484,4.183,0.000,2.804,0.000,11.000,0.000,0.000,34.582
11502,4.183,0.000,2.804,0.000,11.000,0.000,0.000,34.561
11520,4.183,0.000,2.804,0.000,11.000,0.000,0.000,34.548
11538,4.183,0.000,2.804,0.000,11.000,0.000,0.000,34.561
11556,4.183,0.000,2.804,0.000,11.000,0.000,0.000,34.574
11574,4.183,0.000,2.804,0.000,11.000,0.000,0.000,34.538
11592,4.182,0.000,2.804,0.000,11.000,0.000,0.000,34.578
11610,4.182,0.000,2.804,0.000,11.000,0.000,0.000,34.591
11628,4.183,0.000,2.804,0.000,11.000,0.000,0.000,34.583
11646,4.182,0.000,2.804,0.000,11.000,0.000,0.000,34.563
11664,4.182,0.000,2.804,0.000,11.000,0.000,0.000,34.549
11682,4.182,0.000,2.804,0.000,11.000,0.000,0.000,34.571
11700,4.182,0.000,2.804,0.000,11.000,0.000,0.000,34.576
11718,4.182,0.000,2.804,0.000,11.000,0.000,0.000,34.566
11736,4.182,0.000,2.804,0.000,11.000,0.000,0.000,34.570
11754,4.182,0.000,2.804,0.000,11.000,0.000,0.000,34.539
11772,4.182,0.000,2.804,0.000,11.000,0.000,0.000,34.552
11790,4.182,0.000,2.804,0.000,11.000,0.000,0.000,34.584
11808,4.182,0.000,2.804,0.000,11.000,0.000,0.000,34.566
11826,4.182,0.000,2.804,0.000,11.000,0.000,0.000,34.533
11844,4.182,0.000,2.804,0.000,11.000,0.000,0.000,34.563
11862,4.182,0.000,2.804,0.000,11.000,0.000,0.000,34.578
11880,4.182,0.000,2.804,0.000,11.000,0.000,0.000,34.538
11898,4.182,0.000,2.804,0.000,11.000,0.000,0.000,34.532
11916,4.182,0.000,2.804,0.000,11.000,0.000,0.000,34.545
11934,4.182,0.000,2.804,0.000,11.000,0.000,0.000,34.577
11952,4.182,0.000,2.804,0.000,11.000,0.000,0.000,34.581
11970,4.182,0.000,2.804,0.000,11.000,0.000,0.000,34.541
11988,4.182,0.000,2.804,0.000,11.000,0.000,0.000,34.551
12006,4.182,0.000,2.804,0.000,11.000,0.000,0.000,34.522
12024,4.182,0.000,2.804,0.000,11.000,0.000,0.000,34.538
12042,4.182,0.000,2.804,0.000,11.000,0.000,0.000,34.521
12060,4.182,0.000,2.804,0.000,11.000,0.000,0.000,34.526
12078,4.182,0.000,2.804,0.000,11.000,0.000,0.000,34.526
12096,4.182,0.000,2.804,0.000,11.000,0.000,0.000,34.550
12114,4.182,0.000,2.804,0.000,11.000,0.000,0.000,34.554
12132,4.182,0.000,2.804,0.000,11.000,0.000,0.000,34.561
12150,4.182,0.000,2.804,0.000,11.000,0.000,0.000,34.550
12168,4.182,0.000,2.804,0.000,11.000,0.000,0.000,34.585
12186,4.182,0.000,2.804,0.000,11.000,0.000,0.000,34.562
12204,4.182,0.000,2.804,0.000,11.000,0.000,0.000,34.572
12222,4.182,0.000,2.804,0.000,11.000,0.000,0.000,34.562
12240,4.182,0.000,2.804,0.000,11.000,0.000,0.000,34.556
12258,4.182,0.000,2.804,0.000,11.000,0.000,0.000,34.586
12276,4.182,0.000,2.804,0.000,11.000,0.000,0.000,34.545
12294,4.182,0.000,2.804,0.000,11.000,0.000,0.000,34.544
12312,4.182,0.000,2.804,0.000,11.000,0.000,0.000,34.575
12330,4.182,0.000,2.804,0.000,11.000,0.000,0.000,34.533
12348,4.182,0.000,2.804,0.000,11.000,0.000,0.000,34.579
12366,4.182,0.000,2.804,0.000,11.000,0.000,0.000,34.533
12384,4.182,0.000,2.804,0.000,11.000,0.000,0.000,34.542
12401,3.135,-16.748,2.804,0.009,11.000,0.029,-0.016,34.544
12419,2.995,-16.748,2.804,0.093,11.000,0.285,-0.006,36.669
12437,2.898,-16.748,2.804,0.177,11.000,0.532,-0.007,40.219
12455,2.666,-16.749,2.804,0.261,11.000,0.769,-0.056,43.333
12473,3.981,0.000,2.804,0.265,11.000,0.781,0.003,45.159
12491,4.020,0.000,2.804,0.265,11.000,0.781,0.001,45.428
12509,4.038,0.000,2.804,0.265,11.000,0.781,0.001,45.054
12527,4.049,0.000,2.804,0.265,11.000,0.781,0.000,44.538
12545,4.056,0.000,2.804,0.265,11.000,0.781,0.000,43.894
12563,4.061,0.000,2.804,0.265,11.000,0.781,0.000,43.350
12581,4.066,0.000,2.804,0.265,11.000,0.781,0.001,42.873
12599,4.069,0.000,2.804,0.265,11.000,0.781,0.000,42.238
12617,4.072,0.000,2.804,0.265,11.000,0.781,0.000,41.862
12635,4.074,0.000,2.804,0.265,11.000,0.781,0.000,41.442
12653,4.075,0.000,2.804,0.265,11.000,0.781,0.000,40.987
12671,4.076,0.000,2.804,0.265,11.000,0.781,0.000,40.620
12689,4.076,0.000,2.804,0.265,11.000,0.781,0.000,40.211
12707,4.077,0.000,2.804,0.265,11.000,0.781,0.000,39.885
12725,4.077,0.000,2.804,0.265,11.000,0.781,0.000,39.575
12743,4.077,0.000,2.804,0.265,11.000,0.781,0.000,39.292
12761,4.077,0.000,2.804,0.265,11.000,0.781,0.000,39.023
12779,4.078,0.000,2.804,0.265,11.000,0.781,0.000,38.736
12797,4.078,0.000,2.804,0.265,11.000,0.781,0.000,38.520
12815,4.078,0.000,2.804,0.265,11.000,0.781,0.000,38.292
12833,4.078,0.000,2.804,0.265,11.000,0.781,0.000,38.085
12851,4.078,0.000,2.804,0.265,11.000,0.781,0.000,37.875
12869,4.078,0.000,2.804,0.265,11.000,0.781,0.000,37.705
12887,4.078,0.000,2.804,0.265,11.000,0.781,0.000,37.524
12905,4.078,0.000,2.804,0.265,11.000,0.781,0.000,37.367
12923,4.078,0.000,2.804,0.265,11.000,0.781,0.000,37.226
12941,4.079,0.000,2.804,0.265,11.000,0.781,0.000,37.077
12959,4.079,0.000,2.804,0.265,11.000,0.781,0.000,36.851
12977,4.079,0.000,2.804,0.265,11.000,0.781,0.000,36.790
12995,4.079,0.000,2.804,0.265,11.000,0.781,0.000,36.692
13013,4.079,0.000,2.804,0.265,11.000,0.781,0.000,36.540
13031,4.079,0.000,2.804,0.265,11.000,0.781,0.000,36.449
13049,4.079,0.000,2.804,0.265,11.000,0.781,0.000,36.318
13067,4.079,0.000,2.804,0.265,11.000,0.781,0.000,36.247
13085,4.079,0.000,2.804,0.265,11.000,0.781,0.000,36.128
13103,4.079,0.000,2.804,0.265,11.000,0.781,0.000,36.034
13121,4.079,0.000,2.804,0.265,11.000,0.781,0.000,35.995
13139,4.079,0.000,2.804,0.265,11.000,0.781,0.000,35.920
13157,4.079,0.000,2.804,0.265,11.000,0.781,0.000,35.841
13175,4.079,0.000,2.804,0.265,11.000,0.781,0.000,35.779
13193,4.079,0.000,2.804,0.265,11.000,0.781,0.000,35.695
13211,4.079,0.000,2.804,0.265,11.000,0.781,0.000,35.692
13229,4.079,0.000,2.804,0.265,11.000,0.781,0.000,35.621
13247,4.079,0.000,2.804,0.265,11.000,0.781,0.000,35.528
13265,4.079,0.000,2.804,0.265,11.000,0.781,0.000,35.538
13283,4.079,0.000,2.804,0.265,11.000,0.781,0.000,35.452
13301,4.079,0.000,2.804,0.265,11.000,0.781,0.000,35.463
13319,4.079,0.000,2.804,0.265,11.000,0.781,0.000,35.402
13337,4.079,0.000,2.804,0.265,11.000,0.781,0.000,35.324
13355,4.079,0.000,2.804,0.265,11.000,0.781,0.000,35.334
13373,4.079,0.000,2.804,0.265,11.000,0.781,0.000,35.273
13391,4.079,0.000,2.804,0.265,11.000,0.781,0.000,35.238
13409,4.079,0.000,2.804,0.265,11.000,0.781,0.000,35.217
13427,4.079,0.000,2.804,0.265,11.000,0.781,0.000,35.165
13445,4.079,0.000,2.804,0.265,11.000,0.781,0.000,35.123
13463,4.079,0.000,2.804,0.265,11.000,0.781,0.000,35.128
13481,4.079,0.000,2.804,0.265,11.000,0.781,0.000,35.105
13499,4.079,0.000,2.804,0.265,11.000,0.781,0.000,35.064
13517,4.079,0.000,2.804,0.265,11.000,0.781,0.000,35.019
13535,4.079,0.000,2.804,0.265,11.000,0.781,0.000,34.996
13553,4.079,0.000,2.804,0.265,11.000,0.781,0.000,35.002
13571,4.079,0.000,2.804,0.265,11.000,0.781,0.000,34.991
13589,4.079,0.000,2.804,0.265,11.000,0.781,0.000,34.961
13607,4.079,0.000,2.804,0.265,11.000,0.781,0.000,34.966
13625,4.079,0.000,2.804,0.265,11.000,0.781,0.000,34.922
13643,4.079,0.000,2.804,0.265,11.000,0.781,0.000,34.892
13661,4.079,0.000,2.804,0.265,11.000,0.781,0.000,34.902
13679,4.079,0.000,2.804,0.265,11.000,0.781,0.000,34.867
13697,4.079,0.000,2.804,0.265,11.000,0.781,0.000,34.862
13715,4.080,0.000,2.804,0.265,11.000,0.781,0.000,34.843
13733,4.079,0.000,2.804,0.265,11.000,0.781,0.000,34.864
13751,4.079,0.000,2.804,0.265,11.000,0.781,0.000,34.857
13769,4.080,0.000,2.804,0.265,11.000,0.781,0.000,34.810
13787,4.079,0.000,2.804,0.265,11.000,0.781,0.000,34.837
13805,4.079,0.000,2.804,0.265,11.000,0.781,0.000,34.796
13823,4.079,0.000,2.804,0.265,11.000,0.781,0.000,34.795
13841,4.080,0.000,2.804,0.265,11.000,0.781,0.000,34.770
13859,4.080,0.000,2.804,0.265,11.000,0.781,0.000,34.778
13877,4.080,0.000,2.804,0.265,11.000,0.781,0.000,34.740
13895,4.080,0.000,2.804,0.265,11.000,0.781,0.000,34.770
13913,4.079,0.000,2.804,0.265,11.000,0.781,0.000,34.755
13931,4.080,0.000,2.804,0.265,11.000,0.781,0.000,34.749
13949,4.079,0.000,2.804,0.265,11.000,0.781,0.000,34.739
13967,4.080,0.000,2.804,0.265,11.000,0.781,0.000,34.697
13985,4.080,0.000,2.804,0.265,11.000,0.781,0.000,34.726
14003,4.080,0.000,2.804,0.265,11.000,0.781,0.000,34.749
14021,4.080,0.000,2.804,0.265,11.000,0.781,0.000,34.711
14039,4.080,0.000,2.804,0.265,11.000,0.781,0.000,34.731
14057,4.080,0.000,2.804,0.265,11.000,0.781,0.000,34.727
14075,4.080,0.000,2.804,0.265,11.000,0.781,0.000,34.703
14093,4.080,0.000,2.804,0.265,11.000,0.781,0.000,34.648
14111,4.080,0.000,2.804,0.265,11.000,0.781,0.000,34.646
14129,4.080,0.000,2.804,0.265,11.000,0.781,0.000,34.703
14147,4.080,0.000,2.804,0.265,11.000,0.781,0.000,34.691
14165,4.080,0.000,2.804,0.265,11.000,0.781,0.000,34.634
14183,4.080,0.000,2.804,0.265,11.000,0.781,0.000,34.663
14201,4.080,0.000,2.804,0.265,11.000,0.781,0.000,34.671
14219,4.080,0.000,2.804,0.265,11.000,0.781,0.000,34.648
14237,4.080,0.000,2.804,0.265,11.000,0.781,0.000,34.655
14255,4.080,0.000,2.804,0.265,11.000,0.781,0.000,34.615
14273,4.080,0.000,2.804,0.265,11.000,0.781,0.000,34.682
14291,4.080,0.000,2.804,0.265,11.000,0.781,0.000,34.609
14309,4.080,0.000,2.804,0.265,11.000,0.781,0.000,34.642
14327,4.080,0.000,2.804,0.265,11.000,0.781,0.000,34.635
14345,4.080,0.000,2.804,0.265,11.000,0.781,0.000,34.606
14363,4.080,0.000,2.804,0.265,11.000,0.781,0.000,34.638
14381,4.080,0.000,2.804,0.265,11.000,0.781,0.000,34.587
14399,4.080,0.000,2.804,0.265,11.000,0.781,0.000,34.638
14417,4.080,0.000,2.804,0.265,11.000,0.781,0.000,34.638
14435,4.080,0.000,2.804,0.265,11.000,0.781,0.000,34.622
14453,4.080,0.000,2.804,0.265,11.000,0.781,0.000,34.599
14471,4.080,0.000,2.804,0.265,11.000,0.781,0.000,34.618
14489,4.080,0.000,2.804,0.265,11.000,0.781,0.000,34.580
14507,4.080,0.000,2.804,0.265,11.000,0.781,0.000,34.599
14525,4.080,0.000,2.804,0.265,11.000,0.781,0.000,34.589
14543,4.080,0.000,2.804,0.265,11.000,0.781,0.000,34.614
14561,4.080,0.000,2.804,0.265,11.000,0.781,0.000,34.608
14579,4.080,0.000,2.804,0.265,11.000,0.781,0.000,34.600
14597,4.080,0.000,2.804,0.265,11.000,0.781,0.000,34.589
14615,4.080,0.000,2.804,0.265,11.000,0.781,0.000,34.631
14633,4.080,0.000,2.804,0.265,11.000,0.781,0.000,34.579
14651,4.080,0.000,2.804,0.265,11.000,0.781,0.000,34.593
14669,4.080,0.000,2.804,0.265,11.000,0.781,0.000,34.609
14687,4.080,0.000,2.804,0.265,11.000,0.781,0.000,34.620
14705,4.080,0.000,2.804,0.265,11.000,0.781,0.000,34.599
14723,4.080,0.000,2.804,0.265,11.000,0.781,0.000,34.629
14741,4.080,0.000,2.804,0.265,11.000,0.781,0.000,34.594
14759,4.080,0.000,2.804,0.265,11.000,0.781,0.000,34.600
14777,4.080,0.000,2.804,0.265,11.000,0.781,0.000,34.646
14795,4.080,0.000,2.804,0.265,11.000,0.781,0.000,34.582
14813,4.080,0.000,2.804,0.265,11.000,0.781,0.000,34.594
14831,4.080,0.000,2.804,0.265,11.000,0.781,0.000,34.597
14849,4.080,0.000,2.804,0.265,11.000,0.781,0.000,34.578
14867,4.080,0.000,2.804,0.265,11.000,0.781,0.000,34.580
14885,4.080,0.000,2.804,0.265,11.000,0.781,0.000,34.574
14903,4.080,0.000,2.804,0.265,11.000,0.781,0.000,34.592
14921,4.080,0.000,2.804,0.265,11.000,0.781,0.000,34.563
14939,4.080,0.000,2.804,0.265,11.000,0.781,0.000,34.583
14957,4.080,0.000,2.804,0.265,11.000,0.781,0.000,34.563
14975,4.080,0.000,2.804,0.265,11.000,0.781,0.000,34.527
14993,4.080,0.000,2.804,0.265,11.000,0.781,0.000,34.566
15011,4.080,0.000,2.804,0.265,11.000,0.781,0.000,34.618
15029,4.080,0.000,2.804,0.265,11.000,0.781,0.000,34.583
15047,4.080,0.000,2.804,0.265,11.000,0.781,0.000,34.578
15065,4.080,0.000,2.804,0.265,11.000,0.781,0.000,34.602
15083,4.080,0.000,2.804,0.265,11.000,0.781,0.000,34.587
15101,4.080,0.000,2.804,0.265,11.000,0.781,0.000,34.581
15119,4.080,0.000,2.804,0.265,11.000,0.781,0.000,34.577
15137,4.080,0.000,2.804,0.265,11.000,0.781,0.000,34.560
15155,4.080,0.000,2.804,0.265,11.000,0.781,0.000,34.569
15173,4.080,0.000,2.804,0.265,11.000,0.781,0.000,34.585
15191,4.080,0.000,2.804,0.265,11.000,0.781,0.000,34.607
15209,4.080,0.000,2.804,0.265,11.000,0.781,0.000,34.577
15227,4.080,0.000,2.804,0.265,11.000,0.781,0.000,34.586
15245,4.080,0.000,2.804,0.265,11.000,0.781,0.000,34.568
15263,4.080,0.000,2.804,0.265,11.000,0.781,0.000,34.557
15281,4.080,0.000,2.804,0.265,11.000,0.781,0.000,34.536
15299,4.080,0.000,2.804,0.265,11.000,0.781,0.000,34.559
15317,4.080,0.000,2.804,0.265,11.000,0.781,0.000,34.567
15335,4.080,0.000,2.804,0.265,11.000,0.781,0.000,34.559
15353,4.080,0.000,2.804,0.265,11.000,0.781,0.000,34.560
15371,4.080,0.000,2.804,0.265,11.000,0.781,0.000,34.571
15389,4.080,0.000,2.804,0.265,11.000,0.781,0.000,34.562
15407,4.080,0.000,2.804,0.265,11.000,0.781,0.000,34.570
15425,4.080,0.000,2.804,0.265,11.000,0.781,0.000,34.596
15443,4.080,0.000,2.804,0.265,11.000,0.781,0.000,34.606
15461,4.080,0.000,2.804,0.265,11.000,0.781,0.000,34.542
15479,4.080,0.000,2.804,0.265,11.000,0.781,0.000,34.594
15497,4.080,0.000,2.804,0.265,11.000,0.781,0.000,34.601
15515,4.080,0.000,2.804,0.265,11.000,0.781,0.000,34.581
15533,4.080,0.000,2.804,0.265,11.000,0.781,0.000,34.590
15551,4.080,0.000,2.804,0.265,11.000,0.781,0.000,34.571
15569,4.080,0.000,2.804,0.265,11.000,0.781,0.000,34.566
15587,4.080,0.000,2.804,0.265,11.000,0.781,0.000,34.561
15605,4.080,0.000,2.804,0.265,11.000,0.781,0.000,34.540
15623,4.080,0.000,2.804,0.265,11.000,0.781,0.000,34.558
15641,4.080,0.000,2.804,0.265,11.000,0.781,0.000,34.587
15659,4.080,0.000,2.804,0.265,11.000,0.781,0.000,34.587
15677,4.080,0.000,2.804,0.265,11.000,0.781,0.000,34.573
15695,4.080,0.000,2.804,0.265,11.000,0.781,0.000,34.563
15713,4.080,0.000,2.804,0.265,11.000,0.781,0.000,34.539
15731,4.080,0.000,2.804,0.265,11.000,0.781,0.000,34.531
15749,4.080,0.000,2.804,0.265,11.000,0.781,0.000,34.555
15767,4.080,0.000,2.804,0.265,11.000,0.781,0.000,34.537
15785,4.080,0.000,2.804,0.265,11.000,0.781,0.000,34.585
15803,4.080,0.000,2.804,0.265,11.000,0.781,0.000,34.573
15821,4.080,0.000,2.804,0.265,11.000,0.781,0.000,34.574
15839,4.080,0.000,2.804,0.265,11.000,0.781,0.000,34.583
15857,4.080,0.000,2.804,0.265,11.000,0.781,0.000,34.572
15875,4.080,0.000,2.804,0.265,11.000,0.781,0.000,34.568
15893,4.080,0.000,2.804,0.265,11.000,0.781,0.000,34.567
15911,4.080,0.000,2.804,0.265,11.000,0.781,0.000,34.532
15929,4.080,0.000,2.804,0.265,11.000,0.781,0.000,34.581
15947,4.080,0.000,2.804,0.265,11.000,0.781,0.000,34.575
15965,4.080,0.000,2.804,0.265,11.000,0.781,0.000,34.571
15983,4.080,0.000,2.804,0.265,11.000,0.781,0.000,34.600
16001,4.080,0.000,2.804,0.265,11.000,0.781,0.000,34.601
16019,4.080,0.000,2.804,0.265,11.000,0.781,0.000,34.602
16037,4.080,0.000,2.804,0.265,11.000,0.781,0.000,34.557
16055,4.080,0.000,2.804,0.265,11.000,0.781,0.000,34.566
16056,4.080,0.000,2.804,0.265,11.000,0.781,0.000,34.566