File: data/T35/5C/4.csv
time_s,voltage_v,current_a,chargecapacity_ah,dischargecapacity_ah,charge_energy_wh,discharge_energy_wh,voltagedot_v_per_s,temp_degc
1,3.222,0.000,0.000,0.000,0.000,0.000,0.000,33.681
26,3.222,0.000,0.000,0.000,0.000,0.000,0.000,33.730
51,3.222,0.000,0.000,0.000,0.000,0.000,0.000,33.655
75,3.584,1.625,0.007,0.000,0.024,0.000,0.001,33.656
100,3.607,1.625,0.018,0.000,0.065,0.000,0.001,33.600
125,3.632,1.625,0.029,0.000,0.106,0.000,0.001,33.599
150,3.656,1.625,0.041,0.000,0.147,0.000,0.001,33.623
175,3.669,1.625,0.052,0.000,0.188,0.000,0.000,33.670
200,3.680,1.625,0.063,0.000,0.230,0.000,0.001,33.792
225,3.684,1.625,0.074,0.000,0.271,0.000,0.000,33.940
250,3.689,1.625,0.086,0.000,0.313,0.000,0.001,34.096
275,3.684,1.625,0.097,0.000,0.354,0.000,-0.001,34.254
300,3.684,1.625,0.108,0.000,0.396,0.000,0.000,34.350
325,3.695,1.625,0.120,0.000,0.438,0.000,0.001,34.449
350,3.711,1.625,0.131,0.000,0.479,0.000,0.001,34.560
375,3.718,1.625,0.142,0.000,0.521,0.000,0.000,34.699
400,3.729,1.625,0.153,0.000,0.563,0.000,0.000,34.798
425,3.739,1.625,0.165,0.000,0.605,0.000,0.001,34.829
450,3.757,1.625,0.176,0.000,0.648,0.000,0.002,34.921
475,3.772,1.625,0.187,0.000,0.690,0.000,0.001,34.983
500,3.787,1.625,0.199,0.000,0.733,0.000,-0.001,35.046
525,3.784,1.625,0.210,0.000,0.776,0.000,0.001,35.115
550,3.783,1.625,0.221,0.000,0.818,0.000,0.001,35.156
575,3.778,1.625,0.232,0.000,0.861,0.000,0.000,35.234
600,3.780,1.625,0.244,0.000,0.904,0.000,0.000,35.209
625,3.779,1.625,0.255,0.000,0.946,0.000,0.001,35.331
650,3.780,1.625,0.266,0.000,0.989,0.000,0.000,35.358
675,3.780,1.625,0.278,0.000,1.032,0.000,0.001,35.347
700,3.789,1.625,0.289,0.000,1.074,0.000,0.000,35.406
725,3.789,1.625,0.300,0.000,1.117,0.000,0.000,35.458
750,3.798,1.625,0.312,0.000,1.160,0.000,0.001,35.476
775,3.803,1.625,0.323,0.000,1.203,0.000,0.001,35.517
800,3.805,1.625,0.334,0.000,1.246,0.000,0.000,35.548
825,3.788,1.625,0.345,0.000,1.289,0.000,0.000,35.556
850,3.794,1.625,0.357,0.000,1.331,0.000,0.001,35.606
875,3.809,1.625,0.368,0.000,1.374,0.000,0.000,35.589
900,3.804,1.625,0.379,0.000,1.417,0.000,0.000,35.633
925,3.818,1.625,0.391,0.000,1.460,0.000,0.001,35.635
950,3.820,1.625,0.402,0.000,1.503,0.000,0.000,35.668
975,3.825,1.625,0.413,0.000,1.547,0.000,0.000,35.644
1000,3.826,1.625,0.424,0.000,1.590,0.000,0.000,35.663
1025,3.832,1.625,0.436,0.000,1.633,0.000,0.000,35.670
1050,3.839,1.625,0.447,0.000,1.676,0.000,0.000,35.645
1075,3.841,1.625,0.458,0.000,1.720,0.000,0.000,35.678
1100,3.842,1.625,0.470,0.000,1.763,0.000,0.000,35.665
1125,3.846,1.625,0.481,0.000,1.806,0.000,0.000,35.684
1150,3.849,1.625,0.492,0.000,1.850,0.000,0.000,35.645
1175,3.850,1.625,0.503,0.000,1.893,0.000,0.001,35.666
1200,3.855,1.625,0.515,0.000,1.937,0.000,0.000,35.642
1225,3.857,1.625,0.526,0.000,1.980,0.000,0.000,35.620
1250,3.863,1.625,0.537,0.000,2.024,0.000,0.000,35.645
1275,3.870,1.625,0.549,0.000,2.067,0.000,0.000,35.621
1300,3.877,1.625,0.560,0.000,2.111,0.000,0.000,35.569
1325,3.881,1.625,0.571,0.000,2.155,0.000,0.001,35.632
1350,3.882,1.625,0.582,0.000,2.199,0.000,0.000,35.621
1375,3.884,1.625,0.594,0.000,2.242,0.000,0.000,35.624
1400,3.867,1.625,0.605,0.000,2.286,0.000,0.000,35.613
1425,3.867,1.625,0.616,0.000,2.330,0.000,-0.002,35.631
1450,3.858,1.625,0.628,0.000,2.373,0.000,-0.001,35.662
1475,3.860,1.625,0.639,0.000,2.417,0.000,-0.001,35.648
1500,3.873,1.625,0.650,0.000,2.461,0.000,-0.001,35.678
1525,3.871,1.625,0.661,0.000,2.504,0.000,0.000,35.628
1550,3.877,1.625,0.673,0.000,2.548,0.000,0.000,35.638
1575,3.872,1.625,0.684,0.000,2.592,0.000,0.000,35.642
1600,3.878,1.625,0.695,0.000,2.636,0.000,0.000,35.640
1625,3.884,1.625,0.707,0.000,2.679,0.000,0.000,35.648
1650,3.876,1.625,0.718,0.000,2.723,0.000,0.000,35.627
1675,3.877,1.625,0.729,0.000,2.767,0.000,0.000,35.666
1700,3.882,1.625,0.740,0.000,2.811,0.000,0.000,35.686
1725,3.886,1.625,0.752,0.000,2.855,0.000,0.000,35.682
1750,3.891,1.625,0.763,0.000,2.898,0.000,0.000,35.669
1775,3.899,1.625,0.774,0.000,2.942,0.000,0.001,35.633
1800,3.904,1.625,0.786,0.000,2.986,0.000,0.000,35.684
1825,3.902,1.625,0.797,0.000,3.030,0.000,-0.001,35.630
1850,3.900,1.625,0.808,0.000,3.074,0.000,0.000,35.673
1875,3.899,1.625,0.819,0.000,3.118,0.000,-0.001,35.669
1900,3.904,1.625,0.831,0.000,3.162,0.000,0.000,35.686
1925,3.913,1.625,0.842,0.000,3.207,0.000,0.000,35.705
1950,3.916,1.625,0.853,0.000,3.251,0.000,0.000,35.723
1975,3.917,1.625,0.865,0.000,3.295,0.000,0.001,35.723
2000,3.924,1.625,0.876,0.000,3.339,0.000,0.000,35.706
2025,3.928,1.625,0.887,0.000,3.384,0.000,0.000,35.716
2050,3.928,1.625,0.898,0.000,3.428,0.000,-0.002,35.716
2075,3.934,1.625,0.910,0.000,3.472,0.000,0.000,35.737
2100,3.925,1.625,0.921,0.000,3.517,0.000,-0.003,35.734
2125,3.926,1.625,0.932,0.000,3.561,0.000,-0.001,35.752
2150,3.929,1.625,0.944,0.000,3.605,0.000,0.000,35.741
2175,3.931,1.625,0.955,0.000,3.650,0.000,0.000,35.788
2200,3.936,1.625,0.966,0.000,3.694,0.000,0.000,35.845
2225,3.937,1.625,0.977,0.000,3.738,0.000,0.000,35.811
2250,3.939,1.625,0.989,0.000,3.783,0.000,-0.001,35.815
2275,3.942,1.625,1.000,0.000,3.827,0.000,0.000,35.774
2300,3.948,1.625,1.011,0.000,3.872,0.000,0.000,35.796
2325,3.952,1.625,1.023,0.000,3.916,0.000,0.000,35.839
2350,3.956,1.625,1.034,0.000,3.961,0.000,0.001,35.831
2375,3.960,1.625,1.045,0.000,4.006,0.000,0.000,35.835
2400,3.960,1.625,1.056,0.000,4.050,0.000,0.000,35.844
2425,3.963,1.625,1.068,0.000,4.095,0.000,0.000,35.844
2450,3.967,1.625,1.079,0.000,4.140,0.000,0.000,35.916
2475,3.969,1.625,1.090,0.000,4.185,0.000,0.000,35.919
2500,3.974,1.625,1.102,0.000,4.230,0.000,0.001,35.919
2525,3.977,1.625,1.113,0.000,4.274,0.000,0.000,35.910
2550,3.975,1.625,1.124,0.000,4.319,0.000,0.000,35.939
2575,3.980,1.625,1.135,0.000,4.364,0.000,0.000,35.957
2600,3.984,1.625,1.147,0.000,4.409,0.000,0.000,35.921
2625,3.988,1.625,1.158,0.000,4.454,0.000,0.001,35.984
2650,3.989,1.625,1.169,0.000,4.499,0.000,0.000,35.931
2675,3.986,1.625,1.181,0.000,4.544,0.000,-0.001,35.972
2700,3.985,1.625,1.192,0.000,4.589,0.000,0.000,35.931
2725,3.990,1.625,1.203,0.000,4.634,0.000,0.001,35.983
2750,3.998,1.625,1.214,0.000,4.679,0.000,0.000,35.956
2775,4.001,1.625,1.226,0.000,4.724,0.000,0.000,35.954
2800,3.995,1.625,1.237,0.000,4.769,0.000,0.000,35.970
2825,3.993,1.625,1.248,0.000,4.814,0.000,0.000,36.011
2850,3.994,1.625,1.260,0.000,4.860,0.000,0.000,36.043
2875,3.997,1.625,1.271,0.000,4.905,0.000,-0.001,35.996
2900,4.001,1.625,1.282,0.000,4.950,0.000,0.000,36.017
2925,4.012,1.625,1.293,0.000,4.995,0.000,0.001,36.016
2950,4.012,1.625,1.305,0.000,5.040,0.000,-0.001,35.980
2975,4.015,1.625,1.316,0.000,5.086,0.000,0.001,35.999
3000,4.021,1.625,1.327,0.000,5.131,0.000,0.001,36.032
3025,4.029,1.625,1.339,0.000,5.176,0.000,0.003,36.006
3050,4.035,1.625,1.350,0.000,5.222,0.000,0.000,36.087
3075,4.029,1.625,1.361,0.000,5.267,0.000,0.000,36.064
3100,4.025,1.625,1.372,0.000,5.313,0.000,0.000,36.017
3125,4.024,1.625,1.384,0.000,5.358,0.000,-0.003,36.039
3150,4.033,1.625,1.395,0.000,5.404,0.000,0.001,35.996
3175,4.040,1.625,1.406,0.000,5.449,0.000,0.002,36.027
3200,4.042,1.625,1.418,0.000,5.495,0.000,0.000,36.045
3225,4.050,1.625,1.429,0.000,5.541,0.000,0.000,36.040
3250,4.046,1.625,1.440,0.000,5.586,0.000,0.000,36.033
3275,4.049,1.625,1.451,0.000,5.632,0.000,0.000,36.044
3300,4.044,1.625,1.463,0.000,5.678,0.000,0.000,36.067
3325,4.048,1.625,1.474,0.000,5.723,0.000,0.001,36.043
3350,4.053,1.625,1.485,0.000,5.769,0.000,-0.001,36.026
3375,4.055,1.625,1.497,0.000,5.815,0.000,0.000,36.052
3400,4.055,1.625,1.508,0.000,5.861,0.000,0.000,36.040
3425,4.058,1.625,1.519,0.000,5.906,0.000,0.000,36.052
3450,4.058,1.625,1.530,0.000,5.952,0.000,-0.001,36.085
3475,4.062,1.625,1.542,0.000,5.998,0.000,0.000,36.048
3500,4.064,1.625,1.553,0.000,6.044,0.000,0.000,36.059
3525,4.067,1.625,1.564,0.000,6.090,0.000,0.000,36.038
3550,4.071,1.625,1.576,0.000,6.136,0.000,0.000,36.073
3575,4.073,1.625,1.587,0.000,6.182,0.000,0.001,36.099
3600,4.080,1.625,1.598,0.000,6.228,0.000,0.000,36.079
3625,4.090,1.625,1.609,0.000,6.274,0.000,0.000,36.076
3650,4.083,1.625,1.621,0.000,6.320,0.000,0.001,36.090
3675,4.091,1.625,1.632,0.000,6.366,0.000,0.001,36.068
3700,4.090,1.625,1.643,0.000,6.412,0.000,0.000,36.088
3725,4.093,1.625,1.655,0.000,6.458,0.000,0.000,36.075
3750,4.090,1.625,1.666,0.000,6.504,0.000,0.000,36.123
3775,4.095,1.625,1.677,0.000,6.551,0.000,0.001,36.059
3800,4.105,1.625,1.688,0.000,6.597,0.000,0.000,36.103
3825,4.109,1.625,1.700,0.000,6.643,0.000,0.000,36.106
3850,4.109,1.625,1.711,0.000,6.690,0.000,0.000,36.079
3875,4.113,1.625,1.722,0.000,6.736,0.000,0.000,36.099
3900,4.116,1.625,1.734,0.000,6.782,0.000,0.000,36.061
3925,4.115,1.625,1.745,0.000,6.829,0.000,-0.001,36.058
3950,4.107,1.625,1.756,0.000,6.875,0.000,-0.004,36.045
3975,4.096,1.625,1.767,0.000,6.922,0.000,0.000,36.081
4000,4.099,1.625,1.779,0.000,6.968,0.000,0.000,36.085
4025,4.105,1.625,1.790,0.000,7.014,0.000,0.001,36.072
4050,4.114,1.625,1.801,0.000,7.061,0.000,0.001,36.123
4075,4.121,1.625,1.813,0.000,7.107,0.000,0.000,36.123
4100,4.124,1.625,1.824,0.000,7.154,0.000,0.001,36.122
4125,4.135,1.625,1.835,0.000,7.200,0.000,0.001,36.083
4150,4.137,1.625,1.846,0.000,7.247,0.000,0.000,36.104
4175,4.144,1.625,1.858,0.000,7.294,0.000,0.000,36.096
4200,4.143,1.625,1.869,0.000,7.340,0.000,0.001,36.108
4225,4.144,1.625,1.880,0.000,7.387,0.000,-0.001,36.095
4250,4.147,1.625,1.892,0.000,7.434,0.000,0.000,36.042
4275,4.149,1.625,1.903,0.000,7.481,0.000,0.000,36.085
4300,4.155,1.625,1.914,0.000,7.528,0.000,0.001,36.071
4325,4.156,1.625,1.925,0.000,7.575,0.000,0.000,36.070
4350,4.158,1.625,1.937,0.000,7.621,0.000,0.000,36.092
4375,4.168,1.625,1.948,0.000,7.668,0.000,0.001,36.094
4400,4.169,1.625,1.959,0.000,7.715,0.000,0.000,36.114
4425,4.179,1.625,1.971,0.000,7.763,0.000,0.001,36.081
4450,4.190,1.625,1.982,0.000,7.810,0.000,0.000,36.078
4475,4.191,1.625,1.993,0.000,7.857,0.000,-0.002,36.116
4500,4.190,1.625,2.004,0.000,7.904,0.000,-0.006,36.047
4525,4.200,1.609,2.016,0.000,7.952,0.000,0.000,36.090
4550,4.200,1.594,2.027,0.000,7.999,0.000,0.000,36.100
4575,4.200,1.580,2.038,0.000,8.045,0.000,0.000,36.104
4600,4.200,1.590,2.049,0.000,8.092,0.000,0.000,36.076
4625,4.200,1.572,2.060,0.000,8.138,0.000,0.000,36.051
4650,4.200,1.533,2.071,0.000,8.183,0.000,0.000,36.046
4675,4.200,1.502,2.081,0.000,8.227,0.000,0.000,36.024
4700,4.200,1.495,2.092,0.000,8.271,0.000,0.000,36.030
4725,4.200,1.487,2.102,0.000,8.314,0.000,0.000,36.007
4750,4.200,1.465,2.112,0.000,8.357,0.000,0.000,36.028
4775,4.200,1.459,2.122,0.000,8.400,0.000,0.000,35.987
4800,4.200,1.437,2.133,0.000,8.442,0.000,0.000,35.955
4825,4.200,1.417,2.142,0.000,8.484,0.000,0.000,35.996
4850,4.200,1.417,2.152,0.000,8.525,0.000,0.000,35.998
4875,4.200,1.406,2.162,0.000,8.566,0.000,0.000,35.876
4900,4.200,1.392,2.172,0.000,8.607,0.000,0.000,35.888
4925,4.200,1.380,2.181,0.000,8.648,0.000,0.000,35.919
4950,4.200,1.359,2.191,0.000,8.688,0.000,0.000,35.918
4975,4.200,1.334,2.200,0.000,8.727,0.000,0.000,35.869
5000,4.200,1.331,2.209,0.000,8.765,0.000,0.000,35.895
5025,4.200,1.320,2.219,0.000,8.804,0.000,0.000,35.878
5050,4.200,1.306,2.228,0.000,8.843,0.000,0.000,35.821
5075,4.200,1.291,2.237,0.000,8.880,0.000,0.000,35.810
5100,4.200,1.279,2.246,0.000,8.918,0.000,0.000,35.814
5125,4.200,1.264,2.255,0.000,8.955,0.000,0.000,35.833
5150,4.200,1.252,2.263,0.000,8.992,0.000,0.000,35.782
5175,4.200,1.237,2.272,0.000,9.028,0.000,0.000,35.765
5200,4.200,1.218,2.280,0.000,9.064,0.000,0.000,35.735
5225,4.200,1.208,2.289,0.000,9.099,0.000,0.000,35.709
5250,4.200,1.204,2.297,0.000,9.134,0.000,0.000,35.741
5275,4.200,1.186,2.306,0.000,9.169,0.000,0.000,35.700
5300,4.200,1.176,2.314,0.000,9.204,0.000,0.000,35.641
5325,4.200,1.164,2.322,0.000,9.238,0.000,0.000,35.663
5350,4.200,1.153,2.330,0.000,9.271,0.000,0.000,35.637
5375,4.200,1.139,2.338,0.000,9.305,0.000,0.000,35.604
5400,4.200,1.116,2.346,0.000,9.338,0.000,0.000,35.585
5425,4.200,1.103,2.353,0.000,9.370,0.000,0.000,35.587
5450,4.200,1.087,2.361,0.000,9.402,0.000,0.000,35.521
5475,4.200,1.081,2.369,0.000,9.434,0.000,0.000,35.530
5500,4.200,1.064,2.376,0.000,9.465,0.000,0.000,35.566
5525,4.200,1.049,2.383,0.000,9.496,0.000,0.000,35.515
5550,4.200,1.044,2.391,0.000,9.526,0.000,0.000,35.482
5575,4.200,1.031,2.398,0.000,9.557,0.000,0.000,35.465
5600,4.200,1.023,2.405,0.000,9.586,0.000,0.000,35.483
5625,4.200,1.008,2.412,0.000,9.616,0.000,0.000,35.421
5650,4.200,0.998,2.419,0.000,9.645,0.000,0.000,35.472
5675,4.200,0.993,2.426,0.000,9.674,0.000,0.000,35.396
5700,4.200,0.986,2.433,0.000,9.703,0.000,0.000,35.394
5725,4.200,0.978,2.440,0.000,9.732,0.000,0.000,35.415
5750,4.200,0.963,2.446,0.000,9.760,0.000,0.000,35.409
5775,4.200,0.951,2.453,0.000,9.788,0.000,0.000,35.408
5800,4.200,0.941,2.460,0.000,9.816,0.000,0.000,35.376
5825,4.200,0.938,2.466,0.000,9.843,0.000,0.000,35.350
5850,4.200,0.932,2.473,0.000,9.870,0.000,0.000,35.356
5875,4.200,0.923,2.479,0.000,9.897,0.000,0.000,35.309
5900,4.200,0.914,2.485,0.000,9.924,0.000,0.000,35.325
5925,4.200,0.907,2.492,0.000,9.951,0.000,0.000,35.303
5950,4.200,0.898,2.498,0.000,9.977,0.000,0.000,35.272
5975,4.200,0.886,2.504,0.000,10.003,0.000,0.000,35.286
6000,4.200,0.878,2.510,0.000,10.029,0.000,0.000,35.313
6025,4.200,0.865,2.516,0.000,10.054,0.000,0.000,35.268
6050,4.200,0.858,2.522,0.000,10.079,0.000,0.000,35.259
6075,4.200,0.851,2.528,0.000,10.104,0.000,0.000,35.237
6100,4.200,0.844,2.534,0.000,10.129,0.000,0.000,35.260
6125,4.200,0.836,2.540,0.000,10.153,0.000,0.000,35.238
6150,4.200,0.824,2.546,0.000,10.178,0.000,0.000,35.236
6175,4.200,0.815,2.551,0.000,10.202,0.000,0.000,35.218
6200,4.200,0.806,2.557,0.000,10.225,0.000,0.000,35.205
6225,4.200,0.796,2.563,0.000,10.249,0.000,0.000,35.205
6250,4.200,0.788,2.568,0.000,10.272,0.000,0.000,35.193
6275,4.200,0.782,2.574,0.000,10.295,0.000,0.000,35.199
6300,4.200,0.775,2.579,0.000,10.317,0.000,0.000,35.138
6325,4.200,0.767,2.584,0.000,10.340,0.000,0.000,35.118
6350,4.200,0.761,2.590,0.000,10.362,0.000,0.000,35.149
6375,4.200,0.754,2.595,0.000,10.384,0.000,0.000,35.130
6400,4.200,0.747,2.600,0.000,10.406,0.000,0.000,35.117
6425,4.200,0.739,2.605,0.000,10.428,0.000,0.000,35.116
6450,4.200,0.732,2.610,0.000,10.449,0.000,0.000,35.183
6475,4.200,0.724,2.615,0.000,10.470,0.000,0.000,35.094
6500,4.200,0.716,2.620,0.000,10.491,0.000,0.000,35.105
6525,4.200,0.710,2.625,0.000,10.512,0.000,0.000,35.055
6550,4.200,0.706,2.630,0.000,10.533,0.000,0.000,35.063
6575,4.200,0.702,2.635,0.000,10.553,0.000,0.000,35.075
6600,4.200,0.697,2.640,0.000,10.574,0.000,0.000,35.060
6625,4.200,0.690,2.645,0.000,10.594,0.000,0.000,35.040
6650,4.200,0.683,2.650,0.000,10.614,0.000,0.000,35.099
6675,4.200,0.679,2.654,0.000,10.634,0.000,0.000,35.014
6700,4.200,0.673,2.659,0.000,10.654,0.000,0.000,35.053
6725,4.200,0.667,2.664,0.000,10.673,0.000,0.000,35.089
6750,4.200,0.662,2.668,0.000,10.692,0.000,0.000,35.044
6775,4.200,0.656,2.673,0.000,10.712,0.000,0.000,35.009
6800,4.200,0.650,2.677,0.000,10.731,0.000,0.000,34.980
6825,4.200,0.646,2.682,0.000,10.750,0.000,0.000,35.012
6850,4.200,0.641,2.686,0.000,10.768,0.000,0.000,35.011
6875,4.200,0.637,2.691,0.000,10.787,0.000,0.000,35.026
6900,4.200,0.634,2.695,0.000,10.806,0.000,0.000,35.020
6925,4.200,0.631,2.700,0.000,10.824,0.000,0.000,34.960
6950,4.200,0.627,2.704,0.000,10.842,0.000,0.000,34.982
6975,4.200,0.623,2.708,0.000,10.861,0.000,0.000,34.960
7000,4.200,0.619,2.713,0.000,10.879,0.000,0.000,34.950
7025,4.200,0.614,2.717,0.000,10.897,0.000,0.000,34.936
7050,4.200,0.608,2.721,0.000,10.914,0.000,0.000,34.976
7075,4.200,0.603,2.725,0.000,10.932,0.000,0.000,34.943
7100,4.200,0.596,2.730,0.000,10.950,0.000,0.000,34.965
7125,4.200,0.590,2.734,0.000,10.967,0.000,0.000,34.981
7150,4.200,0.584,2.738,0.000,10.984,0.000,0.000,35.003
7175,4.200,0.580,2.742,0.000,11.001,0.000,0.000,34.919
7200,4.200,0.575,2.746,0.000,11.018,0.000,0.000,34.938
7225,4.200,0.570,2.750,0.000,11.035,0.000,0.000,34.923
7250,4.200,0.565,2.754,0.000,11.051,0.000,0.000,34.911
7275,4.200,0.561,2.758,0.000,11.068,0.000,0.000,34.903
7300,4.200,0.556,2.761,0.000,11.084,0.000,0.000,34.939
7325,4.200,0.552,2.765,0.000,11.100,0.000,0.000,34.898
7350,4.200,0.548,2.769,0.000,11.116,0.000,0.000,34.855
7375,4.200,0.543,2.773,0.000,11.132,0.000,0.000,34.900
7400,4.200,0.538,2.777,0.000,11.148,0.000,0.000,34.890
7425,4.200,0.534,2.780,0.000,11.163,0.000,0.000,34.859
7450,4.200,0.531,2.784,0.000,11.179,0.000,0.000,34.826
7475,4.200,0.526,2.788,0.000,11.194,0.000,0.000,34.853
7500,4.200,0.521,2.791,0.000,11.210,0.000,0.000,34.885
7525,4.200,0.515,2.795,0.000,11.225,0.000,0.000,34.799
7550,4.200,0.509,2.799,0.000,11.240,0.000,0.000,34.882
7575,4.200,0.506,2.802,0.000,11.254,0.000,0.000,34.869
7600,4.200,0.502,2.806,0.000,11.269,0.000,0.000,34.868
7625,4.200,0.497,2.809,0.000,11.284,0.000,0.000,34.825
7650,4.200,0.493,2.812,0.000,11.298,0.000,0.000,34.860
7675,4.200,0.488,2.816,0.000,11.312,0.000,0.000,34.852
7700,4.200,0.485,2.819,0.000,11.327,0.000,0.000,34.793
7725,4.200,0.482,2.823,0.000,11.341,0.000,0.000,34.829
7750,4.200,0.479,2.826,0.000,11.355,0.000,0.000,34.863
7775,4.200,0.473,2.829,0.000,11.369,0.000,0.000,34.800
7800,4.200,0.470,2.833,0.000,11.382,0.000,0.000,34.818
7825,4.200,0.466,2.836,0.000,11.396,0.000,0.000,34.795
7850,4.200,0.462,2.839,0.000,11.409,0.000,0.000,34.821
7875,4.200,0.459,2.842,0.000,11.423,0.000,0.000,34.768
7900,4.200,0.455,2.845,0.000,11.436,0.000,0.000,34.797
7925,4.200,0.451,2.849,0.000,11.449,0.000,0.000,34.785
7950,4.200,0.449,2.852,0.000,11.463,0.000,0.000,34.795
7975,4.200,0.446,2.855,0.000,11.476,0.000,0.000,34.783
8000,4.200,0.442,2.858,0.000,11.489,0.000,0.000,34.747
8025,4.200,0.437,2.861,0.000,11.501,0.000,0.000,34.775
8050,4.200,0.434,2.864,0.000,11.514,0.000,0.000,34.770
8075,4.200,0.431,2.867,0.000,11.527,0.000,0.000,34.771
8100,4.200,0.428,2.870,0.000,11.539,0.000,0.000,34.761
8125,4.200,0.424,2.873,0.000,11.552,0.000,0.000,34.769
8150,4.200,0.421,2.876,0.000,11.564,0.000,0.000,34.766
8175,4.200,0.419,2.879,0.000,11.576,0.000,0.000,34.751
8200,4.200,0.417,2.882,0.000,11.588,0.000,0.000,34.751
8225,4.200,0.414,2.884,0.000,11.601,0.000,0.000,34.753
8250,4.200,0.410,2.887,0.000,11.613,0.000,0.000,34.771
8275,4.200,0.406,2.890,0.000,11.624,0.000,0.000,34.776
8300,4.200,0.400,2.893,0.000,11.636,0.000,0.000,34.760
8325,4.200,0.396,2.896,0.000,11.648,0.000,0.000,34.762
8350,4.200,0.393,2.898,0.000,11.659,0.000,0.000,34.777
8375,4.200,0.389,2.901,0.000,11.671,0.000,0.000,34.808
8400,4.200,0.385,2.904,0.000,11.682,0.000,0.000,34.764
8425,4.200,0.382,2.907,0.000,11.693,0.000,0.000,34.734
8450,4.200,0.379,2.909,0.000,11.704,0.000,0.000,34.741
8475,4.200,0.377,2.912,0.000,11.715,0.000,0.000,34.742
8500,4.200,0.375,2.914,0.000,11.726,0.000,0.000,34.736
8525,4.200,0.372,2.917,0.000,11.737,0.000,0.000,34.706
8550,4.200,0.370,2.920,0.000,11.748,0.000,0.000,34.724
8575,4.200,0.368,2.922,0.000,11.759,0.000,0.000,34.771
8600,4.200,0.365,2.925,0.000,11.769,0.000,0.000,34.728
8625,4.200,0.364,2.927,0.000,11.780,0.000,0.000,34.701
8650,4.200,0.361,2.930,0.000,11.791,0.000,0.000,34.708
8675,4.200,0.359,2.932,0.000,11.801,0.000,0.000,34.746
8700,4.200,0.357,2.935,0.000,11.812,0.000,0.000,34.708
8725,4.200,0.355,2.937,0.000,11.822,0.000,0.000,34.747
8750,4.200,0.353,2.940,0.000,11.832,0.000,0.000,34.735
8775,4.200,0.350,2.942,0.000,11.843,0.000,0.000,34.718
8800,4.200,0.348,2.945,0.000,11.853,0.000,0.000,34.735
8825,4.200,0.345,2.947,0.000,11.863,0.000,0.000,34.729
8850,4.200,0.343,2.949,0.000,11.873,0.000,0.000,34.750
8875,4.200,0.342,2.952,0.000,11.883,0.000,0.000,34.719
8900,4.200,0.340,2.954,0.000,11.893,0.000,0.000,34.747
8925,4.200,0.338,2.956,0.000,11.903,0.000,0.000,34.749
8950,4.200,0.336,2.959,0.000,11.913,0.000,0.000,34.748
8975,4.200,0.334,2.961,0.000,11.922,0.000,0.000,34.692
9000,4.200,0.332,2.963,0.000,11.932,0.000,0.000,34.712
9025,4.200,0.329,2.966,0.000,11.942,0.000,0.000,34.741
9050,4.200,0.327,2.968,0.000,11.951,0.000,0.000,34.661
9075,4.200,0.325,2.970,0.000,11.961,0.000,0.000,34.714
9100,4.200,0.323,2.972,0.000,11.970,0.000,0.000,34.683
9125,4.200,0.321,2.975,0.000,11.980,0.000,0.000,34.704
9150,4.200,0.319,2.977,0.000,11.989,0.000,0.000,34.731
9175,4.200,0.317,2.979,0.000,11.998,0.000,0.000,34.733
9200,4.200,0.315,2.981,0.000,12.007,0.000,0.000,34.718
9225,4.200,0.313,2.984,0.000,12.016,0.000,0.000,34.730
9250,4.200,0.311,2.986,0.000,12.026,0.000,0.000,34.699
9275,4.200,0.310,2.988,0.000,12.035,0.000,0.000,34.711
9300,4.200,0.308,2.990,0.000,12.044,0.000,0.000,34.698
9325,4.200,0.306,2.992,0.000,12.053,0.000,0.000,34.726
9350,4.200,0.304,2.994,0.000,12.062,0.000,0.000,34.681
9375,4.200,0.301,2.996,0.000,12.070,0.000,0.000,34.715
9400,4.200,0.299,2.998,0.000,12.079,0.000,0.000,34.717
9425,4.200,0.297,3.001,0.000,12.088,0.000,0.000,34.692
9450,4.200,0.295,3.003,0.000,12.096,0.000,0.000,34.711
9475,4.200,0.293,3.005,0.000,12.105,0.000,0.000,34.693
9500,4.200,0.291,3.007,0.000,12.114,0.000,0.000,34.667
9525,4.200,0.289,3.009,0.000,12.122,0.000,0.000,34.644
9550,4.200,0.287,3.011,0.000,12.130,0.000,0.000,34.671
9575,4.200,0.286,3.013,0.000,12.139,0.000,0.000,34.657
9600,4.200,0.284,3.015,0.000,12.147,0.000,0.000,34.687
9625,4.200,0.281,3.017,0.000,12.155,0.000,0.000,34.667
9650,4.200,0.280,3.019,0.000,12.163,0.000,0.000,34.626
9675,4.200,0.278,3.020,0.000,12.172,0.000,0.000,34.627
9700,4.200,0.277,3.022,0.000,12.180,0.000,0.000,34.668
9725,4.200,0.275,3.024,0.000,12.188,0.000,0.000,34.641
9750,4.200,0.274,3.026,0.000,12.196,0.000,0.000,34.671
9775,4.200,0.272,3.028,0.000,12.204,0.000,0.000,34.661
9800,4.200,0.271,3.030,0.000,12.212,0.000,0.000,34.643
9825,4.200,0.269,3.032,0.000,12.219,0.000,0.000,34.643
9850,4.200,0.268,3.034,0.000,12.227,0.000,0.000,34.643
9875,4.200,0.266,3.036,0.000,12.235,0.000,0.000,34.663
9900,4.200,0.265,3.037,0.000,12.243,0.000,0.000,34.692
9925,4.200,0.263,3.039,0.000,12.251,0.000,0.000,34.667
9950,4.200,0.261,3.041,0.000,12.258,0.000,0.000,34.688
9975,4.200,0.259,3.043,0.000,12.266,0.000,0.000,34.633
10000,4.200,0.258,3.045,0.000,12.273,0.000,0.000,34.637
10025,4.200,0.256,3.046,0.000,12.281,0.000,0.000,34.680
10050,4.200,0.255,3.048,0.000,12.288,0.000,0.000,34.612
10075,4.200,0.254,3.050,0.000,12.296,0.000,0.000,34.648
10100,4.200,0.252,3.052,0.000,12.303,0.000,0.000,34.662
10125,4.200,0.251,3.054,0.000,12.310,0.000,0.000,34.688
10150,4.200,0.250,3.055,0.000,12.318,0.000,0.000,34.597
10175,4.200,0.249,3.057,0.000,12.325,0.000,0.000,34.624
10200,4.200,0.247,3.059,0.000,12.332,0.000,0.000,34.622
10225,4.200,0.246,3.060,0.000,12.339,0.000,0.000,34.610
10250,4.200,0.244,3.062,0.000,12.346,0.000,0.000,34.600
10275,4.200,0.242,3.064,0.000,12.354,0.000,0.000,34.611
10300,4.200,0.240,3.065,0.000,12.361,0.000,0.000,34.637
10325,4.200,0.239,3.067,0.000,12.368,0.000,0.000,34.606
10350,4.200,0.237,3.069,0.000,12.375,0.000,0.000,34.646
10375,4.200,0.236,3.070,0.000,12.381,0.000,0.000,34.611
10400,4.200,0.235,3.072,0.000,12.388,0.000,0.000,34.631
10425,4.200,0.233,3.074,0.000,12.395,0.000,0.000,34.625
10450,4.200,0.232,3.075,0.000,12.402,0.000,0.000,34.627
10475,4.200,0.230,3.077,0.000,12.409,0.000,0.000,34.618
10500,4.200,0.229,3.078,0.000,12.415,0.000,0.000,34.632
10525,4.200,0.228,3.080,0.000,12.422,0.000,0.000,34.590
10550,4.200,0.227,3.082,0.000,12.429,0.000,0.000,34.622
10575,4.200,0.226,3.083,0.000,12.435,0.000,0.000,34.597
10600,4.200,0.225,3.085,0.000,12.442,0.000,0.000,34.631
10625,4.200,0.223,3.086,0.000,12.448,0.000,0.000,34.650
10650,4.200,0.222,3.088,0.000,12.455,0.000,0.000,34.666
10675,4.200,0.221,3.089,0.000,12.461,0.000,0.000,34.659
10700,4.200,0.220,3.091,0.000,12.468,0.000,0.000,34.632
10725,4.200,0.218,3.092,0.000,12.474,0.000,0.000,34.607
10750,4.200,0.217,3.094,0.000,12.480,0.000,0.000,34.601
10775,4.200,0.216,3.096,0.000,12.487,0.000,0.000,34.611
10800,4.200,0.214,3.097,0.000,12.493,0.000,0.000,34.636
10825,4.200,0.213,3.098,0.000,12.499,0.000,0.000,34.626
10850,4.200,0.212,3.100,0.000,12.506,0.000,0.000,34.654
10875,4.200,0.211,3.101,0.000,12.512,0.000,0.000,34.654
10900,4.200,0.209,3.103,0.000,12.518,0.000,0.000,34.620
10925,4.200,0.208,3.104,0.000,12.524,0.000,0.000,34.604
10950,4.200,0.207,3.106,0.000,12.530,0.000,0.000,34.621
10975,4.200,0.206,3.107,0.000,12.536,0.000,0.000,34.615
11000,4.200,0.204,3.109,0.000,12.542,0.000,0.000,34.635
11025,4.200,0.203,3.110,0.000,12.548,0.000,0.000,34.598
11050,4.200,0.202,3.111,0.000,12.554,0.000,0.000,34.590
11075,4.200,0.201,3.113,0.000,12.560,0.000,0.000,34.594
11100,4.200,0.200,3.114,0.000,12.565,0.000,0.000,34.626
11125,4.200,0.198,3.116,0.000,12.571,0.000,0.000,34.600
11150,4.200,0.197,3.117,0.000,12.577,0.000,0.000,34.574
11175,4.200,0.196,3.118,0.000,12.583,0.000,0.000,34.621
11200,4.200,0.195,3.120,0.000,12.588,0.000,0.000,34.637
11225,4.200,0.194,3.121,0.000,12.594,0.000,0.000,34.603
11250,4.200,0.192,3.122,0.000,12.600,0.000,0.000,34.615
11275,4.200,0.191,3.124,0.000,12.605,0.000,0.000,34.582
11300,4.200,0.190,3.125,0.000,12.611,0.000,0.000,34.609
11325,4.200,0.189,3.126,0.000,12.616,0.000,0.000,34.599
11350,4.200,0.188,3.128,0.000,12.622,0.000,0.000,34.582
11375,4.200,0.186,3.129,0.000,12.627,0.000,0.000,34.608
11400,4.200,0.185,3.130,0.000,12.633,0.000,0.000,34.620
11425,4.200,0.184,3.132,0.000,12.638,0.000,0.000,34.612
11450,4.200,0.183,3.133,0.000,12.644,0.000,0.000,34.596
11475,4.200,0.181,3.134,0.000,12.649,0.000,0.000,34.605
11500,4.200,0.180,3.135,0.000,12.654,0.000,0.000,34.623
11525,4.200,0.179,3.137,0.000,12.659,0.000,0.000,34.590
11550,4.200,0.179,3.138,0.000,12.665,0.000,0.000,34.642
11575,4.200,0.177,3.139,0.000,12.670,0.000,0.000,34.618
11600,4.200,0.176,3.140,0.000,12.675,0.000,0.000,34.648
11625,4.200,0.175,3.142,0.000,12.680,0.000,0.000,34.604
11650,4.200,0.173,3.143,0.000,12.685,0.000,0.000,34.609
11675,4.200,0.172,3.144,0.000,12.690,0.000,0.000,34.630
11700,4.200,0.171,3.145,0.000,12.695,0.000,0.000,34.607
11725,4.200,0.170,3.146,0.000,12.700,0.000,0.000,34.547
11750,4.200,0.169,3.147,0.000,12.705,0.000,0.000,34.560
11775,4.200,0.168,3.149,0.000,12.710,0.000,0.000,34.618
11800,4.200,0.166,3.150,0.000,12.715,0.000,0.000,34.553
11825,4.200,0.165,3.151,0.000,12.720,0.000,0.000,34.569
11850,4.200,0.164,3.152,0.000,12.724,0.000,0.000,34.636
11875,4.200,0.163,3.153,0.000,12.729,0.000,0.000,34.596
11900,4.200,0.161,3.154,0.000,12.734,0.000,0.000,34.601
11925,4.200,0.160,3.155,0.000,12.739,0.000,0.000,34.612
11950,4.200,0.159,3.157,0.000,12.743,0.000,0.000,34.569
11975,4.200,0.158,3.158,0.000,12.748,0.000,0.000,34.605
12000,4.200,0.157,3.159,0.000,12.753,0.000,0.000,34.624
12025,4.200,0.156,3.160,0.000,12.757,0.000,0.000,34.578
12050,4.200,0.155,3.161,0.000,12.762,0.000,0.000,34.573
12075,4.200,0.154,3.162,0.000,12.766,0.000,0.000,34.617
12100,4.200,0.153,3.163,0.000,12.771,0.000,0.000,34.581
12125,4.200,0.152,3.164,0.000,12.775,0.000,0.000,34.600
12150,4.200,0.151,3.165,0.000,12.779,0.000,0.000,34.603
12175,4.200,0.151,3.166,0.000,12.784,0.000,0.000,34.638
12200,4.200,0.150,3.167,0.000,12.788,0.000,0.000,34.605
12225,4.200,0.149,3.168,0.000,12.793,0.000,0.000,34.588
12250,4.200,0.148,3.169,0.000,12.797,0.000,0.000,34.590
12275,4.200,0.147,3.170,0.000,12.801,0.000,0.000,34.595
12300,4.200,0.146,3.171,0.000,12.805,0.000,0.000,34.558
12325,4.200,0.145,3.172,0.000,12.810,0.000,0.000,34.561
12350,4.200,0.144,3.173,0.000,12.814,0.000,0.000,34.620
12375,4.200,0.143,3.174,0.000,12.818,0.000,0.000,34.613
12400,4.200,0.142,3.175,0.000,12.822,0.000,0.000,34.576
12425,4.200,0.140,3.176,0.000,12.826,0.000,0.000,34.582
12450,4.200,0.139,3.177,0.000,12.830,0.000,0.000,34.545
12475,4.200,0.138,3.178,0.000,12.835,0.000,0.000,34.541
12500,4.200,0.137,3.179,0.000,12.839,0.000,0.000,34.607
12525,4.200,0.136,3.180,0.000,12.843,0.000,0.000,34.566
12550,4.200,0.135,3.181,0.000,12.846,0.000,0.000,34.529
12575,4.200,0.134,3.182,0.000,12.850,0.000,0.000,34.596
12600,4.200,0.133,3.183,0.000,12.854,0.000,0.000,34.548
12625,4.200,0.132,3.184,0.000,12.858,0.000,0.000,34.543
12650,4.200,0.131,3.185,0.000,12.862,0.000,0.000,34.579
12675,4.200,0.130,3.186,0.000,12.866,0.000,0.000,34.559
12700,4.200,0.129,3.187,0.000,12.870,0.000,0.000,34.573
12725,4.200,0.128,3.188,0.000,12.873,0.000,0.000,34.614
12750,4.200,0.127,3.188,0.000,12.877,0.000,0.000,34.605
12775,4.200,0.126,3.189,0.000,12.881,0.000,0.000,34.601
12800,4.200,0.126,3.190,0.000,12.884,0.000,0.000,34.580
12825,4.200,0.125,3.191,0.000,12.888,0.000,0.000,34.593
12850,4.200,0.124,3.192,0.000,12.892,0.000,0.000,34.570
12875,4.200,0.123,3.193,0.000,12.895,0.000,0.000,34.542
12900,4.200,0.122,3.194,0.000,12.899,0.000,0.000,34.568
12925,4.200,0.121,3.194,0.000,12.902,0.000,0.000,34.550
12950,4.200,0.120,3.195,0.000,12.906,0.000,0.000,34.624
12975,4.200,0.120,3.196,0.000,12.909,0.000,0.000,34.593
13000,4.200,0.119,3.197,0.000,12.913,0.000,0.000,34.558
13025,4.200,0.118,3.198,0.000,12.916,0.000,0.000,34.548
13050,4.200,0.117,3.199,0.000,12.920,0.000,0.000,34.565
13075,4.200,0.116,3.199,0.000,12.923,0.000,0.000,34.584
13100,4.200,0.116,3.200,0.000,12.927,0.000,0.000,34.598
13125,4.200,0.115,3.201,0.000,12.930,0.000,0.000,34.550
13150,4.200,0.113,3.202,0.000,12.933,0.000,0.000,34.556
13175,4.200,0.113,3.203,0.000,12.937,0.000,0.000,34.613
13200,4.200,0.112,3.203,0.000,12.940,0.000,0.000,34.573
13225,4.200,0.111,3.204,0.000,12.943,0.000,0.000,34.591
13250,4.200,0.110,3.205,0.000,12.946,0.000,0.000,34.564
13275,4.200,0.109,3.206,0.000,12.950,0.000,0.000,34.551
13300,4.200,0.108,3.206,0.000,12.953,0.000,0.000,34.556
13325,4.200,0.107,3.207,0.000,12.956,0.000,0.000,34.532
13350,4.200,0.106,3.208,0.000,12.959,0.000,0.000,34.551
13375,4.200,0.105,3.209,0.000,12.962,0.000,0.000,34.626
13400,4.200,0.104,3.209,0.000,12.965,0.000,0.000,34.535
13425,4.200,0.104,3.210,0.000,12.968,0.000,0.000,34.564
13450,4.200,0.103,3.211,0.000,12.971,0.000,0.000,34.553
13475,4.200,0.102,3.212,0.000,12.974,0.000,0.000,34.543
13500,4.200,0.101,3.212,0.000,12.977,0.000,0.000,34.533
13525,4.200,0.100,3.213,0.000,12.980,0.000,0.000,34.547
13550,4.200,0.100,3.214,0.000,12.983,0.000,0.000,34.536
13575,4.200,0.099,3.214,0.000,12.986,0.000,0.000,34.556
13600,4.200,0.099,3.215,0.000,12.989,0.000,0.000,34.563
13625,4.200,0.098,3.216,0.000,12.992,0.000,0.000,34.550
13650,4.200,0.097,3.216,0.000,12.994,0.000,0.000,34.531
13675,4.200,0.096,3.217,0.000,12.997,0.000,0.000,34.538
13700,4.200,0.096,3.218,0.000,13.000,0.000,0.000,34.548
13725,4.200,0.095,3.218,0.000,13.003,0.000,0.000,34.542
13750,4.200,0.094,3.219,0.000,13.006,0.000,0.000,34.593
13775,4.200,0.093,3.220,0.000,13.008,0.000,0.000,34.570
13800,4.200,0.093,3.220,0.000,13.011,0.000,0.000,34.563
13825,4.200,0.092,3.221,0.000,13.014,0.000,0.000,34.540
13850,4.200,0.091,3.222,0.000,13.016,0.000,0.000,34.554
13875,4.200,0.091,3.222,0.000,13.019,0.000,0.000,34.545
13900,4.200,0.090,3.223,0.000,13.022,0.000,0.000,34.539
13925,4.200,0.089,3.223,0.000,13.024,0.000,0.000,34.547
13950,4.200,0.088,3.224,0.000,13.027,0.000,0.000,34.530
13975,4.200,0.088,3.225,0.000,13.029,0.000,0.000,34.528
14000,4.200,0.087,3.225,0.000,13.032,0.000,0.000,34.544
14025,4.200,0.086,3.226,0.000,13.035,0.000,0.000,34.578
14050,4.200,0.086,3.227,0.000,13.037,0.000,0.000,34.538
14075,4.200,0.085,3.227,0.000,13.040,0.000,0.000,34.545
14100,4.200,0.085,3.228,0.000,13.042,0.000,0.000,34.581
14125,4.200,0.084,3.228,0.000,13.044,0.000,0.000,34.555
14150,4.200,0.083,3.229,0.000,13.047,0.000,0.000,34.541
14175,4.200,0.082,3.229,0.000,13.049,0.000,0.000,34.549
14200,4.200,0.082,3.230,0.000,13.052,0.000,0.000,34.521
14225,4.200,0.081,3.231,0.000,13.054,0.000,0.000,34.560
14250,4.200,0.080,3.231,0.000,13.056,0.000,0.000,34.538
14275,4.200,0.080,3.232,0.000,13.059,0.000,0.000,34.590
14300,4.200,0.079,3.232,0.000,13.061,0.000,0.000,34.538
14325,4.200,0.078,3.233,0.000,13.063,0.000,0.000,34.549
14350,4.200,0.078,3.233,0.000,13.066,0.000,0.000,34.511
14375,4.200,0.077,3.234,0.000,13.068,0.000,0.000,34.530
14400,4.200,0.076,3.234,0.000,13.070,0.000,0.000,34.548
14425,4.200,0.076,3.235,0.000,13.072,0.000,0.000,34.529
14450,4.200,0.075,3.235,0.000,13.075,0.000,0.000,34.578
14475,4.200,0.074,3.236,0.000,13.077,0.000,0.000,34.579
14500,4.200,0.074,3.236,0.000,13.079,0.000,0.000,34.584
14525,4.200,0.073,3.237,0.000,13.081,0.000,0.000,34.546
14550,4.200,0.072,3.237,0.000,13.083,0.000,0.000,34.528
14575,4.200,0.072,3.238,0.000,13.085,0.000,0.000,34.543
14600,4.200,0.071,3.238,0.000,13.087,0.000,0.000,34.474
14625,4.200,0.070,3.239,0.000,13.089,0.000,0.000,34.496
14650,4.200,0.070,3.239,0.000,13.091,0.000,0.000,34.509
14675,4.200,0.069,3.240,0.000,13.093,0.000,0.000,34.556
14700,4.200,0.069,3.240,0.000,13.095,0.000,0.000,34.529
14725,4.200,0.068,3.241,0.000,13.097,0.000,0.000,34.575
14750,4.200,0.067,3.241,0.000,13.099,0.000,0.000,34.529
14775,4.200,0.067,3.242,0.000,13.101,0.000,0.000,34.559
14800,4.200,0.066,3.242,0.000,13.103,0.000,0.000,34.537
14825,4.200,0.065,3.243,0.000,13.105,0.000,0.000,34.549
14850,4.180,0.000,3.243,0.000,13.107,0.000,0.000,34.545
14875,4.179,0.000,3.243,0.000,13.107,0.000,0.000,34.547
14900,4.179,0.000,3.243,0.000,13.107,0.000,0.000,34.591
14925,4.178,0.000,3.243,0.000,13.107,0.000,0.000,34.518
14950,4.178,0.000,3.243,0.000,13.107,0.000,0.000,34.518
14975,4.178,0.000,3.243,0.000,13.107,0.000,0.000,34.542
15000,4.177,0.000,3.243,0.000,13.107,0.000,0.000,34.543
15025,4.177,0.000,3.243,0.000,13.107,0.000,0.000,34.499
15050,4.177,0.000,3.243,0.000,13.107,0.000,0.000,34.503
15075,4.177,0.000,3.243,0.000,13.107,0.000,0.000,34.526
15100,4.177,0.000,3.243,0.000,13.107,0.000,0.000,34.539
15125,4.177,0.000,3.243,0.000,13.107,0.000,0.000,34.519
15150,4.176,0.000,3.243,0.000,13.107,0.000,0.000,34.548
15175,4.176,0.000,3.243,0.000,13.107,0.000,0.000,34.539
15200,4.176,0.000,3.243,0.000,13.107,0.000,0.000,34.539
15225,4.176,0.000,3.243,0.000,13.107,0.000,0.000,34.559
15250,4.176,0.000,3.243,0.000,13.107,0.000,0.000,34.554
15275,4.176,0.000,3.243,0.000,13.107,0.000,0.000,34.546
15300,4.176,0.000,3.243,0.000,13.107,0.000,0.000,34.521
15325,4.176,0.000,3.243,0.000,13.107,0.000,0.000,34.528
15350,4.175,0.000,3.243,0.000,13.107,0.000,0.000,34.521
15375,4.175,0.000,3.243,0.000,13.107,0.000,0.000,34.521
15400,4.175,0.000,3.243,0.000,13.107,0.000,0.000,34.536
15425,4.175,0.000,3.243,0.000,13.107,0.000,0.000,34.545
15450,4.175,0.000,3.243,0.000,13.107,0.000,0.000,34.553
15475,4.175,0.000,3.243,0.000,13.107,0.000,0.000,34.525
15500,4.175,0.000,3.243,0.000,13.107,0.000,0.000,34.511
15525,4.175,0.000,3.243,0.000,13.107,0.000,0.000,34.504
15550,4.174,0.000,3.243,0.000,13.107,0.000,0.000,34.574
15575,4.174,0.000,3.243,0.000,13.107,0.000,0.000,34.532
15600,4.174,0.000,3.243,0.000,13.107,0.000,0.000,34.542
15625,4.174,0.000,3.243,0.000,13.107,0.000,0.000,34.520
15650,4.174,0.000,3.243,0.000,13.107,0.000,0.000,34.551
15675,4.174,0.000,3.243,0.000,13.107,0.000,0.000,34.569
15700,4.174,0.000,3.243,0.000,13.107,0.000,0.000,34.559
15725,4.174,0.000,3.243,0.000,13.107,0.000,0.000,34.534
15750,4.174,0.000,3.243,0.000,13.107,0.000,0.000,34.561
15775,4.174,0.000,3.243,0.000,13.107,0.000,0.000,34.551
15800,4.174,0.000,3.243,0.000,13.107,0.000,0.000,34.544
15825,4.174,0.000,3.243,0.000,13.107,0.000,0.000,34.516
15850,4.173,0.000,3.243,0.000,13.107,0.000,0.000,34.516
15875,4.173,0.000,3.243,0.000,13.107,0.000,0.000,34.550
15900,4.173,0.000,3.243,0.000,13.107,0.000,0.000,34.547
15925,4.173,0.000,3.243,0.000,13.107,0.000,0.000,34.518
15950,4.173,0.000,3.243,0.000,13.107,0.000,0.000,34.533
15975,4.173,0.000,3.243,0.000,13.107,0.000,0.000,34.510
16000,4.173,0.000,3.243,0.000,13.107,0.000,0.000,34.514
16025,4.173,0.000,3.243,0.000,13.107,0.000,0.000,34.579
16050,4.173,0.000,3.243,0.000,13.107,0.000,0.000,34.574
16075,4.173,0.000,3.243,0.000,13.107,0.000,0.000,34.578
16100,4.173,0.000,3.243,0.000,13.107,0.000,0.000,34.579
16125,4.173,0.000,3.243,0.000,13.107,0.000,0.000,34.551
16150,4.173,0.000,3.243,0.000,13.107,0.000,0.000,34.483
16175,4.173,0.000,3.243,0.000,13.107,0.000,0.000,34.540
16200,4.173,0.000,3.243,0.000,13.107,0.000,0.000,34.594
16225,4.172,0.000,3.243,0.000,13.107,0.000,0.000,34.559
16250,4.172,0.000,3.243,0.000,13.107,0.000,0.000,34.599
16275,4.172,0.000,3.243,0.000,13.107,0.000,0.000,34.576
16300,4.172,0.000,3.243,0.000,13.107,0.000,0.000,34.580
16325,4.172,0.000,3.243,0.000,13.107,0.000,0.000,34.535
16350,4.172,0.000,3.243,0.000,13.107,0.000,0.000,34.558
16375,4.172,0.000,3.243,0.000,13.107,0.000,0.000,34.570
16400,4.172,0.000,3.243,0.000,13.107,0.000,0.000,34.561
16425,4.172,0.000,3.243,0.000,13.107,0.000,0.000,34.532
16450,4.172,0.000,3.243,0.000,13.107,0.000,0.000,34.561
16475,4.172,0.000,3.243,0.000,13.107,0.000,0.000,34.535
16500,4.172,0.000,3.243,0.000,13.107,0.000,0.000,34.545
16525,4.172,0.000,3.243,0.000,13.107,0.000,0.000,34.580
16550,4.172,0.000,3.243,0.000,13.107,0.000,0.000,34.505
16575,4.172,0.000,3.243,0.000,13.107,0.000,0.000,34.540
16600,4.172,0.000,3.243,0.000,13.107,0.000,0.000,34.576
16625,4.172,0.000,3.243,0.000,13.107,0.000,0.000,34.561
16650,4.172,0.000,3.243,0.000,13.107,0.000,0.000,34.578
16675,4.171,0.000,3.243,0.000,13.107,0.000,0.000,34.522
16700,4.172,0.000,3.243,0.000,13.107,0.000,0.000,34.566
16725,4.171,0.000,3.243,0.000,13.107,0.000,0.000,34.538
16750,4.171,0.000,3.243,0.000,13.107,0.000,0.000,34.536
16775,4.171,0.000,3.243,0.000,13.107,0.000,0.000,34.561
16800,4.171,0.000,3.243,0.000,13.107,0.000,0.000,34.563
16825,4.171,0.000,3.243,0.000,13.107,0.000,0.000,34.594
16850,4.171,0.000,3.243,0.000,13.107,0.000,0.000,34.554
16875,4.171,0.000,3.243,0.000,13.107,0.000,0.000,34.581
16900,4.171,0.000,3.243,0.000,13.107,0.000,0.000,34.523
16925,4.171,0.000,3.243,0.000,13.107,0.000,0.000,34.562
16950,4.171,0.000,3.243,0.000,13.107,0.000,0.000,34.535
16975,4.171,0.000,3.243,0.000,13.107,0.000,0.000,34.537
17000,4.171,0.000,3.243,0.000,13.107,0.000,0.000,34.539
17025,4.171,0.000,3.243,0.000,13.107,0.000,0.000,34.555
17050,4.171,0.000,3.243,0.000,13.107,0.000,0.000,34.531
17075,4.171,0.000,3.243,0.000,13.107,0.000,0.000,34.582
17100,4.171,0.000,3.243,0.000,13.107,0.000,0.000,34.531
17125,4.171,0.000,3.243,0.000,13.107,0.000,0.000,34.544
17150,4.171,0.000,3.243,0.000,13.107,0.000,0.000,34.581
17175,4.171,0.000,3.243,0.000,13.107,0.000,0.000,34.590
17200,4.171,0.000,3.243,0.000,13.107,0.000,0.000,34.531
17225,4.171,0.000,3.243,0.000,13.107,0.000,0.000,34.527
17250,4.171,0.000,3.243,0.000,13.107,0.000,0.000,34.576
17275,4.171,0.000,3.243,0.000,13.107,0.000,0.000,34.547
17300,4.170,0.000,3.243,0.000,13.107,0.000,0.000,34.566
17325,4.171,0.000,3.243,0.000,13.107,0.000,0.000,34.545
17350,4.170,0.000,3.243,0.000,13.107,0.000,0.000,34.538
17375,4.170,0.000,3.243,0.000,13.107,0.000,0.000,34.613
17400,4.170,0.000,3.243,0.000,13.107,0.000,0.000,34.576
17425,4.170,0.000,3.243,0.000,13.107,0.000,0.000,34.580
17450,4.170,0.000,3.243,0.000,13.107,0.000,0.000,34.604
17475,4.170,0.000,3.243,0.000,13.107,0.000,0.000,34.577
17500,4.170,0.000,3.243,0.000,13.107,0.000,0.000,34.569
17525,4.170,0.000,3.243,0.000,13.107,0.000,0.000,34.583
17550,4.170,0.000,3.243,0.000,13.107,0.000,0.000,34.567
17575,4.170,0.000,3.243,0.000,13.107,0.000,0.000,34.564
17600,4.170,0.000,3.243,0.000,13.107,0.000,0.000,34.576
17625,4.170,0.000,3.243,0.000,13.107,0.000,0.000,34.567
17650,4.170,0.000,3.243,0.000,13.107,0.000,0.000,34.583
17675,4.170,0.000,3.243,0.000,13.107,0.000,0.000,34.592
17700,4.170,0.000,3.243,0.000,13.107,0.000,0.000,34.572
17725,4.170,0.000,3.243,0.000,13.107,0.000,0.000,34.545
17750,4.170,0.000,3.243,0.000,13.107,0.000,0.000,34.574
17775,4.170,0.000,3.243,0.000,13.107,0.000,0.000,34.549
17800,4.170,0.000,3.243,0.000,13.107,0.000,0.000,34.566
17825,4.170,0.000,3.243,0.000,13.107,0.000,0.000,34.561
17850,4.170,0.000,3.243,0.000,13.107,0.000,0.000,34.601
17875,4.170,0.000,3.243,0.000,13.107,0.000,0.000,34.585
17900,4.170,0.000,3.243,0.000,13.107,0.000,0.000,34.626
17925,4.170,0.000,3.243,0.000,13.107,0.000,0.000,34.586
17950,4.170,0.000,3.243,0.000,13.107,0.000,0.000,34.611
17975,4.170,0.000,3.243,0.000,13.107,0.000,0.000,34.614
18000,4.170,0.000,3.243,0.000,13.107,0.000,0.000,34.622
18025,4.170,0.000,3.243,0.000,13.107,0.000,0.000,34.591
18050,4.170,0.000,3.243,0.000,13.107,0.000,0.000,34.566
18075,4.169,0.000,3.243,0.000,13.107,0.000,0.000,34.544
18100,4.169,0.000,3.243,0.000,13.107,0.000,0.000,34.544
18125,4.169,0.000,3.243,0.000,13.107,0.000,0.000,34.547
18150,4.170,0.000,3.243,0.000,13.107,0.000,0.000,34.558
18175,4.169,0.000,3.243,0.000,13.107,0.000,0.000,34.563
18200,4.169,0.000,3.243,0.000,13.107,0.000,0.000,34.565
18225,4.169,0.000,3.243,0.000,13.107,0.000,0.000,34.584
18250,4.169,0.000,3.243,0.000,13.107,0.000,0.000,34.590
18275,4.169,0.000,3.243,0.000,13.107,0.000,0.000,34.618
18300,4.169,0.000,3.243,0.000,13.107,0.000,0.000,34.521
18325,4.169,0.000,3.243,0.000,13.107,0.000,0.000,34.572
18350,4.169,0.000,3.243,0.000,13.107,0.000,0.000,34.599
18375,4.169,0.000,3.243,0.000,13.107,0.000,0.000,34.606
18400,4.169,0.000,3.243,0.000,13.107,0.000,0.000,34.599
18425,4.169,0.000,3.243,0.000,13.107,0.000,0.000,34.582
18449,3.028,-16.747,3.243,0.009,13.107,0.028,-0.017,34.614
18474,2.746,-16.748,3.243,0.126,13.107,0.362,-0.009,37.867
18499,2.578,-16.748,3.243,0.242,13.107,0.673,-0.014,42.413
18524,3.996,0.000,3.243,0.256,13.107,0.709,0.003,44.496
18549,4.032,0.000,3.243,0.256,13.107,0.709,0.001,44.436
18574,4.047,0.000,3.243,0.256,13.107,0.709,0.001,43.840
18599,4.056,0.000,3.243,0.256,13.107,0.709,0.000,43.227
18624,4.062,0.000,3.243,0.256,13.107,0.709,0.000,42.498
18649,4.067,0.000,3.243,0.256,13.107,0.709,0.000,41.943
18674,4.070,0.000,3.243,0.256,13.107,0.709,0.000,41.400
18699,4.072,0.000,3.243,0.256,13.107,0.709,0.000,40.808
18724,4.073,0.000,3.243,0.256,13.107,0.709,0.000,40.348
18749,4.073,0.000,3.243,0.256,13.107,0.709,0.000,39.861
18774,4.074,0.000,3.243,0.256,13.107,0.709,0.000,39.521
18799,4.074,0.000,3.243,0.256,13.107,0.709,0.000,39.170
18824,4.074,0.000,3.243,0.256,13.107,0.709,0.000,38.768
18849,4.074,0.000,3.243,0.256,13.107,0.709,0.000,38.473
18874,4.074,0.000,3.243,0.256,13.107,0.709,0.000,38.204
18899,4.074,0.000,3.243,0.256,13.107,0.709,0.000,37.938
18924,4.075,0.000,3.243,0.256,13.107,0.709,0.000,37.722
18949,4.075,0.000,3.243,0.256,13.107,0.709,0.000,37.501
18974,4.075,0.000,3.243,0.256,13.107,0.709,0.000,37.274
18999,4.075,0.000,3.243,0.256,13.107,0.709,0.000,37.052
19024,4.075,0.000,3.243,0.256,13.107,0.709,0.000,36.859
19049,4.075,0.000,3.243,0.256,13.107,0.709,0.000,36.741
19074,4.075,0.000,3.243,0.256,13.107,0.709,0.000,36.614
19099,4.075,0.000,3.243,0.256,13.107,0.709,0.000,36.447
19124,4.075,0.000,3.243,0.256,13.107,0.709,0.000,36.386
19149,4.075,0.000,3.243,0.256,13.107,0.709,0.000,36.217
19174,4.075,0.000,3.243,0.256,13.107,0.709,0.000,36.096
19199,4.075,0.000,3.243,0.256,13.107,0.709,0.000,36.049
19224,4.075,0.000,3.243,0.256,13.107,0.709,0.000,35.954
19249,4.075,0.000,3.243,0.256,13.107,0.709,0.000,35.835
19274,4.075,0.000,3.243,0.256,13.107,0.709,0.000,35.761
19299,4.075,0.000,3.243,0.256,13.107,0.709,0.000,35.725
19324,4.075,0.000,3.243,0.256,13.107,0.709,0.000,35.635
19349,4.075,0.000,3.243,0.256,13.107,0.709,0.000,35.568
19374,4.075,0.000,3.243,0.256,13.107,0.709,0.000,35.474
19399,4.075,0.000,3.243,0.256,13.107,0.709,0.000,35.406
19424,4.076,0.000,3.243,0.256,13.107,0.709,0.000,35.373
19449,4.075,0.000,3.243,0.256,13.107,0.709,0.000,35.320
19474,4.076,0.000,3.243,0.256,13.107,0.709,0.000,35.249
19499,4.076,0.000,3.243,0.256,13.107,0.709,0.000,35.236
19524,4.075,0.000,3.243,0.256,13.107,0.709,0.000,35.218
19549,4.076,0.000,3.243,0.256,13.107,0.709,0.000,35.157
19574,4.076,0.000,3.243,0.256,13.107,0.709,0.000,35.119
19599,4.076,0.000,3.243,0.256,13.107,0.709,0.000,35.134
19624,4.076,0.000,3.243,0.256,13.107,0.709,0.000,35.078
19649,4.076,0.000,3.243,0.256,13.107,0.709,0.000,35.071
19674,4.076,0.000,3.243,0.256,13.107,0.709,0.000,35.013
19699,4.076,0.000,3.243,0.256,13.107,0.709,0.000,35.012
19724,4.076,0.000,3.243,0.256,13.107,0.709,0.000,34.951
19749,4.076,0.000,3.243,0.256,13.107,0.709,0.000,34.916
19774,4.076,0.000,3.243,0.256,13.107,0.709,0.000,34.917
19799,4.076,0.000,3.243,0.256,13.107,0.709,0.000,34.938
19824,4.076,0.000,3.243,0.256,13.107,0.709,0.000,34.875
19849,4.076,0.000,3.243,0.256,13.107,0.709,0.000,34.886
19874,4.076,0.000,3.243,0.256,13.107,0.709,0.000,34.838
19899,4.076,0.000,3.243,0.256,13.107,0.709,0.000,34.833
19924,4.076,0.000,3.243,0.256,13.107,0.709,0.000,34.811
19949,4.076,0.000,3.243,0.256,13.107,0.709,0.000,34.807
19974,4.076,0.000,3.243,0.256,13.107,0.709,0.000,34.820
19999,4.076,0.000,3.243,0.256,13.107,0.709,0.000,34.803
20024,4.076,0.000,3.243,0.256,13.107,0.709,0.000,34.795
20049,4.076,0.000,3.243,0.256,13.107,0.709,0.000,34.778
20074,4.076,0.000,3.243,0.256,13.107,0.709,0.000,34.777
20099,4.076,0.000,3.243,0.256,13.107,0.709,0.000,34.748
20124,4.076,0.000,3.243,0.256,13.107,0.709,0.000,34.707
20149,4.076,0.000,3.243,0.256,13.107,0.709,0.000,34.715
20174,4.076,0.000,3.243,0.256,13.107,0.709,0.000,34.692
20199,4.076,0.000,3.243,0.256,13.107,0.709,0.000,34.691
20224,4.076,0.000,3.243,0.256,13.107,0.709,0.000,34.677
20249,4.076,0.000,3.243,0.256,13.107,0.709,0.000,34.684
20274,4.076,0.000,3.243,0.256,13.107,0.709,0.000,34.680
20299,4.076,0.000,3.243,0.256,13.107,0.709,0.000,34.683
20324,4.076,0.000,3.243,0.256,13.107,0.709,0.000,34.664
20349,4.076,0.000,3.243,0.256,13.107,0.709,0.000,34.662
20374,4.076,0.000,3.243,0.256,13.107,0.709,0.000,34.671
20399,4.076,0.000,3.243,0.256,13.107,0.709,0.000,34.672
20424,4.076,0.000,3.243,0.256,13.107,0.709,0.000,34.686
20449,4.076,0.000,3.243,0.256,13.107,0.709,0.000,34.667
20474,4.076,0.000,3.243,0.256,13.107,0.709,0.000,34.646
20499,4.076,0.000,3.243,0.256,13.107,0.709,0.000,34.657
20524,4.076,0.000,3.243,0.256,13.107,0.709,0.000,34.666
20549,4.076,0.000,3.243,0.256,13.107,0.709,0.000,34.661
20574,4.076,0.000,3.243,0.256,13.107,0.709,0.000,34.671
20599,4.076,0.000,3.243,0.256,13.107,0.709,0.000,34.659
20624,4.076,0.000,3.243,0.256,13.107,0.709,0.000,34.652
20649,4.076,0.000,3.243,0.256,13.107,0.709,0.000,34.632
20674,4.076,0.000,3.243,0.256,13.107,0.709,0.000,34.629
20699,4.076,0.000,3.243,0.256,13.107,0.709,0.000,34.619
20724,4.076,0.000,3.243,0.256,13.107,0.709,0.000,34.629
20749,4.076,0.000,3.243,0.256,13.107,0.709,0.000,34.628
20774,4.076,0.000,3.243,0.256,13.107,0.709,0.000,34.602
20799,4.076,0.000,3.243,0.256,13.107,0.709,0.000,34.578
20824,4.076,0.000,3.243,0.256,13.107,0.709,0.000,34.640
20849,4.076,0.000,3.243,0.256,13.107,0.709,0.000,34.609
20874,4.076,0.000,3.243,0.256,13.107,0.709,0.000,34.625
20899,4.076,0.000,3.243,0.256,13.107,0.709,0.000,34.579
20924,4.076,0.000,3.243,0.256,13.107,0.709,0.000,34.630
20949,4.076,0.000,3.243,0.256,13.107,0.709,0.000,34.636
20974,4.076,0.000,3.243,0.256,13.107,0.709,0.000,34.615
20999,4.076,0.000,3.243,0.256,13.107,0.709,0.000,34.605
21024,4.076,0.000,3.243,0.256,13.107,0.709,0.000,34.580
21049,4.076,0.000,3.243,0.256,13.107,0.709,0.000,34.605
21074,4.076,0.000,3.243,0.256,13.107,0.709,0.000,34.621
21099,4.076,0.000,3.243,0.256,13.107,0.709,0.000,34.609
21124,4.076,0.000,3.243,0.256,13.107,0.709,0.000,34.642
21149,4.076,0.000,3.243,0.256,13.107,0.709,0.000,34.580
21174,4.076,0.000,3.243,0.256,13.107,0.709,0.000,34.614
21199,4.076,0.000,3.243,0.256,13.107,0.709,0.000,34.607
21224,4.076,0.000,3.243,0.256,13.107,0.709,0.000,34.608
21249,4.076,0.000,3.243,0.256,13.107,0.709,0.000,34.641
21274,4.076,0.000,3.243,0.256,13.107,0.709,0.000,34.638
21299,4.076,0.000,3.243,0.256,13.107,0.709,0.000,34.619
21324,4.076,0.000,3.243,0.256,13.107,0.709,0.000,34.608
21349,4.076,0.000,3.243,0.256,13.107,0.709,0.000,34.637
21374,4.076,0.000,3.243,0.256,13.107,0.709,0.000,34.605
21399,4.076,0.000,3.243,0.256,13.107,0.709,0.000,34.674
21424,4.076,0.000,3.243,0.256,13.107,0.709,0.000,34.603
21449,4.076,0.000,3.243,0.256,13.107,0.709,0.000,34.573
21474,4.076,0.000,3.243,0.256,13.107,0.709,0.000,34.651
21499,4.076,0.000,3.243,0.256,13.107,0.709,0.000,34.632
21524,4.076,0.000,3.243,0.256,13.107,0.709,0.000,34.610
21549,4.076,0.000,3.243,0.256,13.107,0.709,0.000,34.586
21574,4.076,0.000,3.243,0.256,13.107,0.709,0.000,34.612
21599,4.076,0.000,3.243,0.256,13.107,0.709,0.000,34.614
21624,4.076,0.000,3.243,0.256,13.107,0.709,0.000,34.577
21649,4.076,0.000,3.243,0.256,13.107,0.709,0.000,34.588
21674,4.076,0.000,3.243,0.256,13.107,0.709,0.000,34.589
21699,4.076,0.000,3.243,0.256,13.107,0.709,0.000,34.610
21724,4.076,0.000,3.243,0.256,13.107,0.709,0.000,34.626
21749,4.076,0.000,3.243,0.256,13.107,0.709,0.000,34.607
21774,4.076,0.000,3.243,0.256,13.107,0.709,0.000,34.585
21799,4.076,0.000,3.243,0.256,13.107,0.709,0.000,34.638
21824,4.076,0.000,3.243,0.256,13.107,0.709,0.000,34.604
21849,4.076,0.000,3.243,0.256,13.107,0.709,0.000,34.558
21874,4.076,0.000,3.243,0.256,13.107,0.709,0.000,34.600
21899,4.076,0.000,3.243,0.256,13.107,0.709,0.000,34.619
21924,4.076,0.000,3.243,0.256,13.107,0.709,0.000,34.624
21949,4.076,0.000,3.243,0.256,13.107,0.709,0.000,34.572
21974,4.076,0.000,3.243,0.256,13.107,0.709,0.000,34.559
21999,4.076,0.000,3.243,0.256,13.107,0.709,0.000,34.550
22024,4.076,0.000,3.243,0.256,13.107,0.709,0.000,34.626
22049,4.076,0.000,3.243,0.256,13.107,0.709,0.000,34.606
22074,4.076,0.000,3.243,0.256,13.107,0.709,0.000,34.557
22099,4.076,0.000,3.243,0.256,13.107,0.709,0.000,34.579
22102,4.076,0.000,3.243,0.256,13.107,0.709,0.000,34.556