File: data/T35/5C/5.csv
time_s,voltage_v,current_a,chargecapacity_ah,dischargecapacity_ah,charge_energy_wh,discharge_energy_wh,voltagedot_v_per_s,temp_degc
1,3.390,0.000,0.000,0.000,0.000,0.000,0.000,34.642
19,3.390,0.000,0.000,0.000,0.000,0.000,0.000,34.649
37,3.390,0.000,0.000,0.000,0.000,0.000,0.000,34.618
55,3.390,0.000,0.000,0.000,0.000,0.000,0.000,34.600
72,3.511,1.625,0.005,0.000,0.019,0.000,0.001,34.600
90,3.523,1.625,0.014,0.000,0.048,0.000,0.000,34.636
108,3.531,1.625,0.022,0.000,0.076,0.000,0.001,34.726
126,3.538,1.625,0.030,0.000,0.105,0.000,0.001,34.728
144,3.544,1.625,0.038,0.000,0.134,0.000,0.000,34.759
162,3.549,1.625,0.046,0.000,0.163,0.000,0.000,34.758
180,3.553,1.625,0.054,0.000,0.191,0.000,0.000,34.822
198,3.557,1.625,0.062,0.000,0.220,0.000,0.001,34.879
216,3.561,1.625,0.070,0.000,0.249,0.000,0.000,34.859
234,3.565,1.625,0.079,0.000,0.278,0.000,0.000,34.895
252,3.569,1.625,0.087,0.000,0.307,0.000,0.000,34.914
270,3.572,1.625,0.095,0.000,0.336,0.000,0.000,34.932
288,3.576,1.625,0.103,0.000,0.365,0.000,0.000,34.977
306,3.579,1.625,0.111,0.000,0.394,0.000,0.000,34.971
324,3.583,1.625,0.119,0.000,0.423,0.000,0.000,35.024
342,3.586,1.625,0.127,0.000,0.452,0.000,0.000,35.047
360,3.589,1.625,0.135,0.000,0.482,0.000,0.000,35.098
378,3.592,1.625,0.144,0.000,0.511,0.000,0.000,35.066
396,3.595,1.625,0.152,0.000,0.540,0.000,0.000,35.072
414,3.598,1.625,0.160,0.000,0.569,0.000,0.000,35.117
432,3.601,1.625,0.168,0.000,0.599,0.000,0.000,35.105
450,3.603,1.625,0.176,0.000,0.628,0.000,0.000,35.114
468,3.605,1.625,0.184,0.000,0.657,0.000,0.000,35.115
486,3.608,1.625,0.192,0.000,0.686,0.000,0.000,35.126
504,3.610,1.625,0.200,0.000,0.716,0.000,0.000,35.093
522,3.613,1.625,0.209,0.000,0.745,0.000,0.000,35.196
540,3.615,1.625,0.217,0.000,0.774,0.000,0.000,35.167
558,3.617,1.625,0.225,0.000,0.804,0.000,0.000,35.139
576,3.619,1.625,0.233,0.000,0.833,0.000,0.000,35.173
594,3.621,1.625,0.241,0.000,0.863,0.000,0.000,35.172
612,3.623,1.625,0.249,0.000,0.892,0.000,0.000,35.170
630,3.625,1.625,0.257,0.000,0.921,0.000,0.000,35.199
648,3.626,1.625,0.265,0.000,0.951,0.000,0.000,35.204
666,3.628,1.625,0.274,0.000,0.980,0.000,0.000,35.192
684,3.630,1.625,0.282,0.000,1.010,0.000,0.000,35.238
702,3.632,1.625,0.290,0.000,1.039,0.000,0.000,35.261
720,3.634,1.625,0.298,0.000,1.069,0.000,0.000,35.242
738,3.635,1.625,0.306,0.000,1.098,0.000,0.000,35.250
756,3.637,1.625,0.314,0.000,1.128,0.000,0.000,35.268
774,3.639,1.625,0.322,0.000,1.158,0.000,0.000,35.253
792,3.641,1.625,0.330,0.000,1.187,0.000,0.000,35.305
810,3.642,1.625,0.339,0.000,1.217,0.000,0.000,35.299
828,3.644,1.625,0.347,0.000,1.246,0.000,0.000,35.298
846,3.646,1.625,0.355,0.000,1.276,0.000,0.000,35.321
864,3.648,1.625,0.363,0.000,1.306,0.000,0.000,35.345
882,3.649,1.625,0.371,0.000,1.335,0.000,0.000,35.349
900,3.651,1.625,0.379,0.000,1.365,0.000,0.000,35.323
918,3.653,1.625,0.387,0.000,1.395,0.000,0.000,35.347
936,3.655,1.625,0.395,0.000,1.424,0.000,0.000,35.347
954,3.656,1.625,0.404,0.000,1.454,0.000,0.000,35.341
972,3.658,1.625,0.412,0.000,1.484,0.000,0.000,35.347
990,3.660,1.625,0.420,0.000,1.513,0.000,0.000,35.373
1008,3.662,1.625,0.428,0.000,1.543,0.000,0.000,35.424
1026,3.663,1.625,0.436,0.000,1.573,0.000,0.000,35.363
1044,3.665,1.625,0.444,0.000,1.603,0.000,0.000,35.359
1062,3.667,1.625,0.452,0.000,1.632,0.000,0.000,35.388
1080,3.668,1.625,0.460,0.000,1.662,0.000,0.000,35.346
1098,3.670,1.625,0.469,0.000,1.692,0.000,0.000,35.429
1116,3.672,1.625,0.477,0.000,1.722,0.000,0.000,35.406
1134,3.674,1.625,0.485,0.000,1.752,0.000,0.000,35.417
1152,3.675,1.625,0.493,0.000,1.782,0.000,0.000,35.394
1170,3.677,1.625,0.501,0.000,1.811,0.000,0.000,35.464
1188,3.679,1.625,0.509,0.000,1.841,0.000,0.000,35.445
1206,3.680,1.625,0.517,0.000,1.871,0.000,0.000,35.419
1224,3.682,1.625,0.525,0.000,1.901,0.000,0.000,35.440
1242,3.684,1.625,0.534,0.000,1.931,0.000,0.000,35.465
1260,3.686,1.625,0.542,0.000,1.961,0.000,0.000,35.469
1278,3.687,1.625,0.550,0.000,1.991,0.000,0.000,35.471
1296,3.689,1.625,0.558,0.000,2.021,0.000,0.000,35.504
1314,3.691,1.625,0.566,0.000,2.051,0.000,0.000,35.463
1332,3.693,1.625,0.574,0.000,2.081,0.000,0.000,35.490
1350,3.694,1.625,0.582,0.000,2.111,0.000,0.000,35.481
1368,3.696,1.625,0.590,0.000,2.141,0.000,0.000,35.537
1386,3.698,1.625,0.599,0.000,2.171,0.000,0.000,35.570
1404,3.699,1.625,0.607,0.000,2.201,0.000,0.000,35.511
1422,3.701,1.625,0.615,0.000,2.231,0.000,0.000,35.538
1440,3.703,1.625,0.623,0.000,2.261,0.000,0.000,35.531
1458,3.704,1.625,0.631,0.000,2.291,0.000,0.000,35.559
1476,3.706,1.625,0.639,0.000,2.321,0.000,0.000,35.538
1494,3.708,1.625,0.647,0.000,2.352,0.000,0.000,35.551
1512,3.709,1.625,0.655,0.000,2.382,0.000,0.000,35.589
1530,3.711,1.625,0.664,0.000,2.412,0.000,0.000,35.548
1548,3.713,1.625,0.672,0.000,2.442,0.000,0.000,35.576
1566,3.715,1.625,0.680,0.000,2.472,0.000,0.000,35.571
1584,3.716,1.625,0.688,0.000,2.502,0.000,0.000,35.614
1602,3.718,1.625,0.696,0.000,2.533,0.000,0.000,35.590
1620,3.720,1.625,0.704,0.000,2.563,0.000,0.000,35.591
1638,3.721,1.625,0.712,0.000,2.593,0.000,0.000,35.611
1656,3.723,1.625,0.720,0.000,2.623,0.000,0.000,35.626
1674,3.724,1.625,0.729,0.000,2.653,0.000,0.000,35.648
1692,3.726,1.625,0.737,0.000,2.684,0.000,0.000,35.626
1710,3.728,1.625,0.745,0.000,2.714,0.000,0.000,35.593
1728,3.729,1.625,0.753,0.000,2.744,0.000,0.000,35.658
1746,3.731,1.625,0.761,0.000,2.775,0.000,0.000,35.615
1764,3.732,1.625,0.769,0.000,2.805,0.000,0.000,35.653
1782,3.734,1.625,0.777,0.000,2.835,0.000,0.000,35.664
1800,3.735,1.625,0.785,0.000,2.866,0.000,0.000,35.664
1818,3.737,1.625,0.794,0.000,2.896,0.000,0.000,35.669
1836,3.738,1.625,0.802,0.000,2.926,0.000,0.000,35.666
1854,3.740,1.625,0.810,0.000,2.957,0.000,0.000,35.700
1872,3.741,1.625,0.818,0.000,2.987,0.000,0.000,35.697
1890,3.743,1.625,0.826,0.000,3.018,0.000,0.000,35.715
1908,3.744,1.625,0.834,0.000,3.048,0.000,0.000,35.725
1926,3.746,1.625,0.842,0.000,3.078,0.000,0.000,35.699
1944,3.747,1.625,0.850,0.000,3.109,0.000,0.000,35.705
1962,3.749,1.625,0.859,0.000,3.139,0.000,0.000,35.720
1980,3.750,1.625,0.867,0.000,3.170,0.000,0.000,35.745
1998,3.752,1.625,0.875,0.000,3.200,0.000,0.000,35.712
2016,3.753,1.625,0.883,0.000,3.231,0.000,0.000,35.732
2034,3.755,1.625,0.891,0.000,3.261,0.000,0.000,35.752
2052,3.756,1.625,0.899,0.000,3.292,0.000,0.000,35.753
2070,3.758,1.625,0.907,0.000,3.322,0.000,0.000,35.729
2088,3.759,1.625,0.915,0.000,3.353,0.000,0.000,35.749
2106,3.761,1.625,0.924,0.000,3.383,0.000,0.000,35.744
2124,3.762,1.625,0.932,0.000,3.414,0.000,0.000,35.732
2142,3.764,1.625,0.940,0.000,3.445,0.000,0.000,35.797
2160,3.765,1.625,0.948,0.000,3.475,0.000,0.000,35.778
2178,3.767,1.625,0.956,0.000,3.506,0.000,0.000,35.780
2196,3.768,1.625,0.964,0.000,3.536,0.000,0.000,35.754
2214,3.770,1.625,0.972,0.000,3.567,0.000,0.000,35.750
2232,3.771,1.625,0.980,0.000,3.598,0.000,0.000,35.726
2250,3.773,1.625,0.989,0.000,3.628,0.000,0.000,35.770
2268,3.775,1.625,0.997,0.000,3.659,0.000,0.000,35.747
2286,3.776,1.625,1.005,0.000,3.690,0.000,0.000,35.762
2304,3.778,1.625,1.013,0.000,3.720,0.000,0.000,35.735
2322,3.780,1.625,1.021,0.000,3.751,0.000,0.000,35.802
2340,3.781,1.625,1.029,0.000,3.782,0.000,0.000,35.770
2358,3.783,1.625,1.037,0.000,3.812,0.000,0.000,35.764
2376,3.784,1.625,1.045,0.000,3.843,0.000,0.000,35.750
2394,3.786,1.625,1.054,0.000,3.874,0.000,0.000,35.783
2412,3.788,1.625,1.062,0.000,3.905,0.000,0.000,35.759
2430,3.789,1.625,1.070,0.000,3.935,0.000,0.000,35.773
2448,3.791,1.625,1.078,0.000,3.966,0.000,0.000,35.730
2466,3.793,1.625,1.086,0.000,3.997,0.000,0.000,35.771
2484,3.795,1.625,1.094,0.000,4.028,0.000,0.000,35.741
2502,3.796,1.625,1.102,0.000,4.059,0.000,0.000,35.797
2520,3.798,1.625,1.111,0.000,4.090,0.000,0.000,35.813
2538,3.800,1.625,1.119,0.000,4.120,0.000,0.000,35.758
2556,3.802,1.625,1.127,0.000,4.151,0.000,0.000,35.779
2574,3.803,1.625,1.135,0.000,4.182,0.000,0.000,35.812
2592,3.805,1.625,1.143,0.000,4.213,0.000,0.000,35.821
2610,3.807,1.625,1.151,0.000,4.244,0.000,0.000,35.741
2628,3.809,1.625,1.159,0.000,4.275,0.000,0.000,35.789
2646,3.811,1.625,1.167,0.000,4.306,0.000,0.000,35.761
2664,3.813,1.625,1.176,0.000,4.337,0.000,0.000,35.760
2682,3.815,1.625,1.184,0.000,4.368,0.000,0.000,35.780
2700,3.816,1.625,1.192,0.000,4.399,0.000,0.000,35.797
2718,3.818,1.625,1.200,0.000,4.430,0.000,0.000,35.786
2736,3.820,1.625,1.208,0.000,4.461,0.000,0.000,35.769
2754,3.822,1.625,1.216,0.000,4.492,0.000,0.000,35.738
2772,3.824,1.625,1.224,0.000,4.523,0.000,0.000,35.818
2790,3.826,1.625,1.232,0.000,4.554,0.000,0.000,35.787
2808,3.828,1.625,1.241,0.000,4.585,0.000,0.000,35.785
2826,3.830,1.625,1.249,0.000,4.616,0.000,0.000,35.776
2844,3.832,1.625,1.257,0.000,4.648,0.000,0.000,35.748
2862,3.834,1.625,1.265,0.000,4.679,0.000,0.000,35.739
2880,3.837,1.625,1.273,0.000,4.710,0.000,0.000,35.763
2898,3.839,1.625,1.281,0.000,4.741,0.000,0.000,35.809
2916,3.841,1.625,1.289,0.000,4.772,0.000,0.000,35.822
2934,3.843,1.625,1.297,0.000,4.803,0.000,0.000,35.772
2952,3.845,1.625,1.306,0.000,4.835,0.000,0.000,35.826
2970,3.847,1.625,1.314,0.000,4.866,0.000,0.000,35.787
2988,3.849,1.625,1.322,0.000,4.897,0.000,0.000,35.810
3006,3.851,1.625,1.330,0.000,4.929,0.000,0.000,35.779
3024,3.854,1.625,1.338,0.000,4.960,0.000,0.000,35.751
3042,3.856,1.625,1.346,0.000,4.991,0.000,0.000,35.771
3060,3.858,1.625,1.354,0.000,5.022,0.000,0.000,35.748
3078,3.860,1.625,1.362,0.000,5.054,0.000,0.000,35.816
3096,3.862,1.625,1.371,0.000,5.085,0.000,0.000,35.809
3114,3.865,1.625,1.379,0.000,5.117,0.000,0.000,35.782
3132,3.867,1.625,1.387,0.000,5.148,0.000,0.000,35.787
3150,3.869,1.625,1.395,0.000,5.179,0.000,0.000,35.775
3168,3.871,1.625,1.403,0.000,5.211,0.000,0.000,35.753
3186,3.874,1.625,1.411,0.000,5.242,0.000,0.000,35.786
3204,3.876,1.625,1.419,0.000,5.274,0.000,0.000,35.788
3222,3.878,1.625,1.427,0.000,5.305,0.000,0.000,35.805
3240,3.881,1.625,1.436,0.000,5.337,0.000,0.000,35.758
3258,3.883,1.625,1.444,0.000,5.368,0.000,0.000,35.758
3276,3.885,1.625,1.452,0.000,5.400,0.000,0.000,35.789
3294,3.888,1.625,1.460,0.000,5.432,0.000,0.000,35.774
3312,3.890,1.625,1.468,0.000,5.463,0.000,0.000,35.761
3330,3.892,1.625,1.476,0.000,5.495,0.000,0.000,35.768
3348,3.895,1.625,1.484,0.000,5.526,0.000,0.000,35.786
3366,3.897,1.625,1.492,0.000,5.558,0.000,0.000,35.801
3384,3.899,1.625,1.501,0.000,5.590,0.000,0.000,35.767
3402,3.902,1.625,1.509,0.000,5.621,0.000,0.000,35.766
3420,3.904,1.625,1.517,0.000,5.653,0.000,0.000,35.774
3438,3.907,1.625,1.525,0.000,5.685,0.000,0.000,35.808
3456,3.909,1.625,1.533,0.000,5.717,0.000,0.000,35.786
3474,3.911,1.625,1.541,0.000,5.748,0.000,0.000,35.809
3492,3.914,1.625,1.549,0.000,5.780,0.000,0.000,35.784
3510,3.916,1.625,1.557,0.000,5.812,0.000,0.000,35.789
3528,3.919,1.625,1.566,0.000,5.844,0.000,0.000,35.766
3546,3.921,1.625,1.574,0.000,5.876,0.000,0.000,35.749
3564,3.923,1.625,1.582,0.000,5.908,0.000,0.000,35.742
3582,3.926,1.625,1.590,0.000,5.939,0.000,0.000,35.756
3600,3.928,1.625,1.598,0.000,5.971,0.000,0.000,35.768
3618,3.931,1.625,1.606,0.000,6.003,0.000,0.000,35.775
3636,3.933,1.625,1.614,0.000,6.035,0.000,0.000,35.809
3654,3.935,1.625,1.622,0.000,6.067,0.000,0.000,35.782
3672,3.938,1.625,1.631,0.000,6.099,0.000,0.000,35.751
3690,3.940,1.625,1.639,0.000,6.131,0.000,0.000,35.777
3708,3.943,1.625,1.647,0.000,6.163,0.000,0.000,35.806
3726,3.945,1.625,1.655,0.000,6.195,0.000,0.000,35.752
3744,3.947,1.625,1.663,0.000,6.227,0.000,0.000,35.801
3762,3.950,1.625,1.671,0.000,6.259,0.000,0.000,35.786
3780,3.952,1.625,1.679,0.000,6.292,0.000,0.000,35.756
3798,3.955,1.625,1.687,0.000,6.324,0.000,0.000,35.791
3816,3.957,1.625,1.696,0.000,6.356,0.000,0.000,35.741
3834,3.959,1.625,1.704,0.000,6.388,0.000,0.000,35.736
3852,3.962,1.625,1.712,0.000,6.420,0.000,0.000,35.719
3870,3.964,1.625,1.720,0.000,6.452,0.000,0.000,35.748
3888,3.966,1.625,1.728,0.000,6.485,0.000,0.000,35.735
3906,3.969,1.625,1.736,0.000,6.517,0.000,0.000,35.741
3924,3.971,1.625,1.744,0.000,6.549,0.000,0.000,35.736
3942,3.974,1.625,1.752,0.000,6.581,0.000,0.000,35.734
3960,3.976,1.625,1.761,0.000,6.614,0.000,0.000,35.721
3978,3.978,1.625,1.769,0.000,6.646,0.000,0.000,35.677
3996,3.981,1.625,1.777,0.000,6.678,0.000,0.000,35.753
4014,3.983,1.625,1.785,0.000,6.711,0.000,0.000,35.731
4032,3.985,1.625,1.793,0.000,6.743,0.000,0.000,35.686
4050,3.988,1.625,1.801,0.000,6.775,0.000,0.000,35.720
4068,3.990,1.625,1.809,0.000,6.808,0.000,0.000,35.714
4086,3.992,1.625,1.817,0.000,6.840,0.000,0.000,35.695
4104,3.995,1.625,1.826,0.000,6.873,0.000,0.000,35.711
4122,3.997,1.625,1.834,0.000,6.905,0.000,0.000,35.707
4140,3.999,1.625,1.842,0.000,6.938,0.000,0.000,35.744
4158,4.001,1.625,1.850,0.000,6.970,0.000,0.000,35.727
4176,4.004,1.625,1.858,0.000,7.003,0.000,0.000,35.705
4194,4.006,1.625,1.866,0.000,7.035,0.000,0.000,35.698
4212,4.008,1.625,1.874,0.000,7.068,0.000,0.000,35.678
4230,4.010,1.625,1.882,0.000,7.100,0.000,0.000,35.739
4248,4.013,1.625,1.891,0.000,7.133,0.000,0.000,35.665
4266,4.015,1.625,1.899,0.000,7.166,0.000,0.000,35.654
4284,4.017,1.625,1.907,0.000,7.198,0.000,0.000,35.675
4302,4.020,1.625,1.915,0.000,7.231,0.000,0.000,35.651
4320,4.022,1.625,1.923,0.000,7.264,0.000,0.000,35.676
4338,4.024,1.625,1.931,0.000,7.296,0.000,0.000,35.673
4356,4.027,1.625,1.939,0.000,7.329,0.000,0.000,35.708
4374,4.029,1.625,1.947,0.000,7.362,0.000,0.000,35.722
4392,4.031,1.625,1.956,0.000,7.394,0.000,0.000,35.657
4410,4.033,1.625,1.964,0.000,7.427,0.000,0.000,35.680
4428,4.036,1.625,1.972,0.000,7.460,0.000,0.000,35.720
4446,4.038,1.625,1.980,0.000,7.493,0.000,0.000,35.647
4464,4.041,1.625,1.988,0.000,7.526,0.000,0.000,35.726
4482,4.043,1.625,1.996,0.000,7.558,0.000,0.000,35.712
4500,4.045,1.625,2.004,0.000,7.591,0.000,0.000,35.693
4518,4.048,1.625,2.012,0.000,7.624,0.000,0.000,35.692
4536,4.050,1.625,2.021,0.000,7.657,0.000,0.000,35.675
4554,4.053,1.625,2.029,0.000,7.690,0.000,0.000,35.691
4572,4.055,1.625,2.037,0.000,7.723,0.000,0.000,35.685
4590,4.057,1.625,2.045,0.000,7.756,0.000,0.000,35.671
4608,4.060,1.625,2.053,0.000,7.789,0.000,0.000,35.688
4626,4.063,1.625,2.061,0.000,7.822,0.000,0.000,35.688
4644,4.065,1.625,2.069,0.000,7.855,0.000,0.000,35.745
4662,4.068,1.625,2.077,0.000,7.888,0.000,0.000,35.705
4680,4.070,1.625,2.086,0.000,7.921,0.000,0.000,35.716
4698,4.073,1.625,2.094,0.000,7.954,0.000,0.000,35.697
4716,4.075,1.625,2.102,0.000,7.987,0.000,0.000,35.736
4734,4.078,1.625,2.110,0.000,8.020,0.000,0.000,35.692
4752,4.081,1.625,2.118,0.000,8.053,0.000,0.000,35.734
4770,4.083,1.625,2.126,0.000,8.087,0.000,0.000,35.695
4788,4.086,1.625,2.134,0.000,8.120,0.000,0.000,35.722
4806,4.089,1.625,2.142,0.000,8.153,0.000,0.000,35.696
4824,4.092,1.625,2.151,0.000,8.186,0.000,0.000,35.745
4842,4.094,1.625,2.159,0.000,8.220,0.000,0.000,35.741
4860,4.097,1.625,2.167,0.000,8.253,0.000,0.000,35.748
4878,4.100,1.625,2.175,0.000,8.286,0.000,0.000,35.736
4896,4.103,1.625,2.183,0.000,8.319,0.000,0.000,35.779
4914,4.106,1.625,2.191,0.000,8.353,0.000,0.000,35.744
4932,4.109,1.625,2.199,0.000,8.386,0.000,0.000,35.769
4950,4.112,1.625,2.207,0.000,8.420,0.000,0.000,35.747
4968,4.115,1.625,2.216,0.000,8.453,0.000,0.000,35.798
4986,4.118,1.625,2.224,0.000,8.486,0.000,0.000,35.802
5004,4.121,1.625,2.232,0.000,8.520,0.000,0.000,35.752
5022,4.124,1.625,2.240,0.000,8.553,0.000,0.000,35.756
5040,4.127,1.625,2.248,0.000,8.587,0.000,0.000,35.781
5058,4.130,1.625,2.256,0.000,8.621,0.000,0.000,35.789
5076,4.133,1.625,2.264,0.000,8.654,0.000,0.000,35.758
5094,4.137,1.625,2.272,0.000,8.688,0.000,0.000,35.768
5112,4.140,1.625,2.281,0.000,8.721,0.000,0.000,35.793
5130,4.143,1.625,2.289,0.000,8.755,0.000,0.000,35.815
5148,4.146,1.625,2.297,0.000,8.789,0.000,0.000,35.826
5166,4.150,1.625,2.305,0.000,8.822,0.000,0.000,35.781
5184,4.153,1.625,2.313,0.000,8.856,0.000,0.000,35.872
5202,4.156,1.625,2.321,0.000,8.890,0.000,0.000,35.867
5220,4.160,1.625,2.329,0.000,8.924,0.000,0.000,35.792
5238,4.163,1.625,2.337,0.000,8.957,0.000,0.000,35.866
5256,4.166,1.625,2.346,0.000,8.991,0.000,0.000,35.840
5274,4.169,1.625,2.354,0.000,9.025,0.000,0.000,35.868
5292,4.173,1.625,2.362,0.000,9.059,0.000,0.000,35.880
5310,4.176,1.625,2.370,0.000,9.093,0.000,0.000,35.869
5328,4.179,1.625,2.378,0.000,9.127,0.000,0.000,35.859
5346,4.183,1.625,2.386,0.000,9.161,0.000,0.000,35.842
5364,4.186,1.625,2.394,0.000,9.195,0.000,0.000,35.871
5382,4.189,1.625,2.402,0.000,9.229,0.000,0.000,35.948
5400,4.193,1.625,2.411,0.000,9.263,0.000,0.000,35.889
5418,4.196,1.625,2.419,0.000,9.297,0.000,0.000,35.892
5436,4.199,1.625,2.427,0.000,9.331,0.000,0.000,35.879
5454,4.200,1.582,2.435,0.000,9.364,0.000,0.000,35.910
5472,4.200,1.536,2.443,0.000,9.397,0.000,0.000,35.882
5490,4.200,1.498,2.450,0.000,9.429,0.000,0.000,35.893
5508,4.200,1.465,2.458,0.000,9.460,0.000,0.000,35.898
5526,4.200,1.434,2.465,0.000,9.491,0.000,0.000,35.855
5544,4.200,1.404,2.472,0.000,9.520,0.000,0.000,35.925
5562,4.200,1.377,2.479,0.000,9.550,0.000,0.000,35.836
5580,4.200,1.350,2.486,0.000,9.578,0.000,0.000,35.855
5598,4.200,1.324,2.492,0.000,9.606,0.000,0.000,35.800
5616,4.200,1.299,2.499,0.000,9.634,0.000,0.000,35.804
5634,4.200,1.276,2.505,0.000,9.661,0.000,0.000,35.821
5652,4.200,1.254,2.512,0.000,9.687,0.000,0.000,35.825
5670,4.200,1.232,2.518,0.000,9.713,0.000,0.000,35.773
5688,4.200,1.210,2.524,0.000,9.739,0.000,0.000,35.773
5706,4.200,1.189,2.530,0.000,9.764,0.000,0.000,35.705
5724,4.200,1.170,2.536,0.000,9.789,0.000,0.000,35.735
5742,4.200,1.150,2.542,0.000,9.813,0.000,0.000,35.660
5760,4.200,1.132,2.547,0.000,9.837,0.000,0.000,35.646
5778,4.200,1.112,2.553,0.000,9.861,0.000,0.000,35.671
5796,4.200,1.096,2.558,0.000,9.884,0.000,0.000,35.601
5814,4.200,1.077,2.564,0.000,9.907,0.000,0.000,35.607
5832,4.200,1.061,2.569,0.000,9.929,0.000,0.000,35.621
5850,4.200,1.045,2.575,0.000,9.951,0.000,0.000,35.654
5868,4.200,1.029,2.580,0.000,9.973,0.000,0.000,35.579
5886,4.200,1.013,2.585,0.000,9.995,0.000,0.000,35.593
5904,4.200,0.998,2.590,0.000,10.016,0.000,0.000,35.571
5922,4.200,0.982,2.595,0.000,10.036,0.000,0.000,35.560
5940,4.200,0.968,2.600,0.000,10.057,0.000,0.000,35.559
5958,4.200,0.954,2.604,0.000,10.077,0.000,0.000,35.499
5976,4.200,0.940,2.609,0.000,10.097,0.000,0.000,35.511
5994,4.200,0.928,2.614,0.000,10.117,0.000,0.000,35.451
6012,4.200,0.915,2.618,0.000,10.136,0.000,0.000,35.490
6030,4.200,0.901,2.623,0.000,10.155,0.000,0.000,35.419
6048,4.200,0.888,2.627,0.000,10.174,0.000,0.000,35.402
6066,4.200,0.875,2.632,0.000,10.192,0.000,0.000,35.432
6084,4.200,0.863,2.636,0.000,10.211,0.000,0.000,35.355
6102,4.200,0.851,2.641,0.000,10.229,0.000,0.000,35.399
6120,4.200,0.838,2.645,0.000,10.246,0.000,0.000,35.365
6138,4.200,0.827,2.649,0.000,10.264,0.000,0.000,35.370
6156,4.200,0.815,2.653,0.000,10.281,0.000,0.000,35.356
6174,4.200,0.803,2.657,0.000,10.298,0.000,0.000,35.343
6192,4.200,0.792,2.661,0.000,10.315,0.000,0.000,35.304
6210,4.200,0.780,2.665,0.000,10.331,0.000,0.000,35.340
6228,4.200,0.769,2.669,0.000,10.347,0.000,0.000,35.294
6246,4.200,0.758,2.673,0.000,10.363,0.000,0.000,35.240
6264,4.200,0.747,2.676,0.000,10.379,0.000,0.000,35.267
6282,4.200,0.736,2.680,0.000,10.395,0.000,0.000,35.246
6300,4.200,0.726,2.684,0.000,10.410,0.000,0.000,35.227
6318,4.200,0.715,2.687,0.000,10.425,0.000,0.000,35.225
6336,4.200,0.705,2.691,0.000,10.440,0.000,0.000,35.183
6354,4.200,0.694,2.694,0.000,10.455,0.000,0.000,35.250
6372,4.200,0.684,2.698,0.000,10.469,0.000,0.000,35.214
6390,4.200,0.675,2.701,0.000,10.484,0.000,0.000,35.198
6408,4.200,0.663,2.705,0.000,10.498,0.000,0.000,35.160
6426,4.200,0.654,2.708,0.000,10.511,0.000,0.000,35.144
6444,4.200,0.644,2.711,0.000,10.525,0.000,0.000,35.172
6462,4.200,0.634,2.714,0.000,10.539,0.000,0.000,35.146
6480,4.200,0.624,2.717,0.000,10.552,0.000,0.000,35.100
6498,4.200,0.615,2.721,0.000,10.565,0.000,0.000,35.130
6516,4.200,0.606,2.724,0.000,10.578,0.000,0.000,35.094
6534,4.200,0.596,2.727,0.000,10.590,0.000,0.000,35.100
6552,4.200,0.586,2.730,0.000,10.603,0.000,0.000,35.077
6570,4.200,0.577,2.732,0.000,10.615,0.000,0.000,35.062
6588,4.200,0.568,2.735,0.000,10.627,0.000,0.000,35.062
6606,4.200,0.559,2.738,0.000,10.639,0.000,0.000,35.054
6624,4.200,0.549,2.741,0.000,10.650,0.000,0.000,35.066
6642,4.200,0.541,2.744,0.000,10.662,0.000,0.000,35.074
6660,4.200,0.532,2.746,0.000,10.673,0.000,0.000,35.026
6678,4.200,0.523,2.749,0.000,10.684,0.000,0.000,35.037
6696,4.200,0.515,2.752,0.000,10.695,0.000,0.000,35.031
6714,4.200,0.507,2.754,0.000,10.706,0.000,0.000,35.022
6732,4.200,0.498,2.757,0.000,10.716,0.000,0.000,35.004
6750,4.200,0.490,2.759,0.000,10.727,0.000,0.000,34.937
6768,4.200,0.483,2.762,0.000,10.737,0.000,0.000,35.003
6786,4.200,0.474,2.764,0.000,10.747,0.000,0.000,34.987
6804,4.200,0.465,2.766,0.000,10.757,0.000,0.000,34.991
6822,4.200,0.458,2.769,0.000,10.766,0.000,0.000,34.941
6840,4.200,0.450,2.771,0.000,10.776,0.000,0.000,34.958
6858,4.200,0.442,2.773,0.000,10.785,0.000,0.000,34.939
6876,4.200,0.435,2.775,0.000,10.795,0.000,0.000,34.954
6894,4.200,0.427,2.777,0.000,10.804,0.000,0.000,34.935
6912,4.200,0.420,2.780,0.000,10.812,0.000,0.000,34.949
6930,4.200,0.412,2.782,0.000,10.821,0.000,0.000,34.887
6948,4.200,0.405,2.784,0.000,10.830,0.000,0.000,34.915
6966,4.200,0.397,2.786,0.000,10.838,0.000,0.000,34.928
6984,4.200,0.390,2.788,0.000,10.846,0.000,0.000,34.910
7002,4.200,0.383,2.790,0.000,10.855,0.000,0.000,34.890
7020,4.200,0.377,2.791,0.000,10.863,0.000,0.000,34.844
7038,4.200,0.370,2.793,0.000,10.870,0.000,0.000,34.854
7056,4.200,0.363,2.795,0.000,10.878,0.000,0.000,34.887
7074,4.200,0.356,2.797,0.000,10.886,0.000,0.000,34.865
7092,4.200,0.350,2.799,0.000,10.893,0.000,0.000,34.863
7110,4.200,0.344,2.800,0.000,10.900,0.000,0.000,34.869
7128,4.200,0.336,2.802,0.000,10.907,0.000,0.000,34.865
7146,4.200,0.330,2.804,0.000,10.914,0.000,0.000,34.866
7164,4.200,0.324,2.805,0.000,10.921,0.000,0.000,34.844
7182,4.200,0.318,2.807,0.000,10.928,0.000,0.000,34.843
7200,4.200,0.312,2.809,0.000,10.935,0.000,0.000,34.869
7218,4.200,0.306,2.810,0.000,10.941,0.000,0.000,34.828
7236,4.200,0.301,2.812,0.000,10.948,0.000,0.000,34.809
7254,4.200,0.296,2.813,0.000,10.954,0.000,0.000,34.812
7272,4.200,0.289,2.815,0.000,10.960,0.000,0.000,34.793
7290,4.200,0.284,2.816,0.000,10.966,0.000,0.000,34.821
7308,4.200,0.279,2.818,0.000,10.972,0.000,0.000,34.815
7326,4.200,0.274,2.819,0.000,10.978,0.000,0.000,34.774
7344,4.200,0.268,2.820,0.000,10.983,0.000,0.000,34.812
7362,4.200,0.263,2.822,0.000,10.989,0.000,0.000,34.808
7380,4.200,0.258,2.823,0.000,10.994,0.000,0.000,34.769
7398,4.200,0.254,2.824,0.000,11.000,0.000,0.000,34.755
7416,4.200,0.249,2.825,0.000,11.005,0.000,0.000,34.774
7434,4.200,0.244,2.827,0.000,11.010,0.000,0.000,34.734
7452,4.200,0.239,2.828,0.000,11.015,0.000,0.000,34.740
7470,4.200,0.235,2.829,0.000,11.020,0.000,0.000,34.747
7488,4.200,0.231,2.830,0.000,11.025,0.000,0.000,34.777
7506,4.200,0.226,2.831,0.000,11.030,0.000,0.000,34.811
7524,4.200,0.221,2.832,0.000,11.035,0.000,0.000,34.758
7542,4.200,0.217,2.834,0.000,11.039,0.000,0.000,34.727
7560,4.200,0.213,2.835,0.000,11.044,0.000,0.000,34.695
7578,4.200,0.209,2.836,0.000,11.048,0.000,0.000,34.760
7596,4.200,0.205,2.837,0.000,11.053,0.000,0.000,34.751
7614,4.200,0.201,2.838,0.000,11.057,0.000,0.000,34.732
7632,4.200,0.197,2.839,0.000,11.061,0.000,0.000,34.764
7650,4.200,0.193,2.840,0.000,11.065,0.000,0.000,34.766
7668,4.200,0.190,2.841,0.000,11.069,0.000,0.000,34.793
7686,4.200,0.186,2.842,0.000,11.073,0.000,0.000,34.707
7704,4.200,0.182,2.843,0.000,11.077,0.000,0.000,34.720
7722,4.200,0.179,2.843,0.000,11.081,0.000,0.000,34.782
7740,4.200,0.175,2.844,0.000,11.084,0.000,0.000,34.729
7758,4.200,0.172,2.845,0.000,11.088,0.000,0.000,34.684
7776,4.200,0.168,2.846,0.000,11.092,0.000,0.000,34.709
7794,4.200,0.165,2.847,0.000,11.095,0.000,0.000,34.706
7812,4.200,0.162,2.848,0.000,11.099,0.000,0.000,34.732
7830,4.200,0.159,2.848,0.000,11.102,0.000,0.000,34.747
7848,4.200,0.156,2.849,0.000,11.105,0.000,0.000,34.702
7866,4.200,0.153,2.850,0.000,11.109,0.000,0.000,34.703
7884,4.200,0.150,2.851,0.000,11.112,0.000,0.000,34.695
7902,4.200,0.148,2.852,0.000,11.115,0.000,0.000,34.705
7920,4.200,0.144,2.852,0.000,11.118,0.000,0.000,34.697
7938,4.200,0.142,2.853,0.000,11.121,0.000,0.000,34.725
7956,4.200,0.140,2.854,0.000,11.124,0.000,0.000,34.699
7974,4.200,0.137,2.854,0.000,11.127,0.000,0.000,34.720
7992,4.200,0.134,2.855,0.000,11.130,0.000,0.000,34.714
8010,4.200,0.133,2.856,0.000,11.132,0.000,0.000,34.740
8028,4.200,0.130,2.856,0.000,11.135,0.000,0.000,34.669
8046,4.200,0.127,2.857,0.000,11.138,0.000,0.000,34.714
8064,4.200,0.124,2.858,0.000,11.141,0.000,0.000,34.696
8082,4.200,0.122,2.858,0.000,11.143,0.000,0.000,34.691
8100,4.200,0.121,2.859,0.000,11.146,0.000,0.000,34.678
8118,4.200,0.118,2.859,0.000,11.148,0.000,0.000,34.695
8136,4.200,0.115,2.860,0.000,11.151,0.000,0.000,34.685
8154,4.200,0.113,2.861,0.000,11.153,0.000,0.000,34.707
8172,4.200,0.111,2.861,0.000,11.155,0.000,0.000,34.686
8190,4.200,0.110,2.862,0.000,11.158,0.000,0.000,34.694
8208,4.200,0.108,2.862,0.000,11.160,0.000,0.000,34.691
8226,4.200,0.106,2.863,0.000,11.162,0.000,0.000,34.692
8244,4.200,0.103,2.863,0.000,11.164,0.000,0.000,34.702
8262,4.200,0.102,2.864,0.000,11.167,0.000,0.000,34.683
8280,4.200,0.099,2.864,0.000,11.169,0.000,0.000,34.698
8298,4.200,0.098,2.865,0.000,11.171,0.000,0.000,34.684
8316,4.200,0.096,2.865,0.000,11.173,0.000,0.000,34.699
8334,4.200,0.095,2.866,0.000,11.175,0.000,0.000,34.695
8352,4.200,0.093,2.866,0.000,11.177,0.000,0.000,34.665
8370,4.200,0.092,2.867,0.000,11.179,0.000,0.000,34.662
8388,4.200,0.090,2.867,0.000,11.181,0.000,0.000,34.667
8406,4.200,0.089,2.868,0.000,11.182,0.000,0.000,34.633
8424,4.200,0.087,2.868,0.000,11.184,0.000,0.000,34.632
8442,4.200,0.085,2.869,0.000,11.186,0.000,0.000,34.668
8460,4.200,0.083,2.869,0.000,11.188,0.000,0.000,34.672
8478,4.200,0.083,2.869,0.000,11.190,0.000,0.000,34.629
8496,4.200,0.081,2.870,0.000,11.191,0.000,0.000,34.649
8514,4.200,0.079,2.870,0.000,11.193,0.000,0.000,34.662
8532,4.200,0.079,2.871,0.000,11.195,0.000,0.000,34.647
8550,4.200,0.076,2.871,0.000,11.196,0.000,0.000,34.662
8568,4.200,0.075,2.871,0.000,11.198,0.000,0.000,34.631
8586,4.200,0.074,2.872,0.000,11.200,0.000,0.000,34.662
8604,4.200,0.074,2.872,0.000,11.201,0.000,0.000,34.657
8622,4.200,0.072,2.872,0.000,11.203,0.000,0.000,34.671
8640,4.200,0.071,2.873,0.000,11.204,0.000,0.000,34.650
8658,4.200,0.070,2.873,0.000,11.206,0.000,0.000,34.634
8676,4.200,0.068,2.873,0.000,11.207,0.000,0.000,34.660
8694,4.200,0.067,2.874,0.000,11.208,0.000,0.000,34.602
8712,4.200,0.066,2.874,0.000,11.210,0.000,0.000,34.612
8729,4.196,0.000,2.874,0.000,11.210,0.000,0.000,34.635
8747,4.195,0.000,2.874,0.000,11.210,0.000,0.000,34.625
8765,4.195,0.000,2.874,0.000,11.210,0.000,0.000,34.623
8783,4.194,0.000,2.874,0.000,11.210,0.000,0.000,34.652
8801,4.194,0.000,2.874,0.000,11.210,0.000,0.000,34.610
8819,4.194,0.000,2.874,0.000,11.210,0.000,0.000,34.619
8837,4.193,0.000,2.874,0.000,11.210,0.000,0.000,34.633
8855,4.193,0.000,2.874,0.000,11.210,0.000,0.000,34.642
8873,4.193,0.000,2.874,0.000,11.210,0.000,0.000,34.582
8891,4.193,0.000,2.874,0.000,11.210,0.000,0.000,34.627
8909,4.192,0.000,2.874,0.000,11.210,0.000,0.000,34.660
8927,4.192,0.000,2.874,0.000,11.210,0.000,0.000,34.655
8945,4.192,0.000,2.874,0.000,11.210,0.000,0.000,34.629
8963,4.192,0.000,2.874,0.000,11.210,0.000,0.000,34.605
8981,4.192,0.000,2.874,0.000,11.210,0.000,0.000,34.626
8999,4.191,0.000,2.874,0.000,11.210,0.000,0.000,34.596
9017,4.191,0.000,2.874,0.000,11.210,0.000,0.000,34.616
9035,4.191,0.000,2.874,0.000,11.210,0.000,0.000,34.598
9053,4.191,0.000,2.874,0.000,11.210,0.000,0.000,34.615
9071,4.191,0.000,2.874,0.000,11.210,0.000,0.000,34.620
9089,4.191,0.000,2.874,0.000,11.210,0.000,0.000,34.590
9107,4.191,0.000,2.874,0.000,11.210,0.000,0.000,34.607
9125,4.190,0.000,2.874,0.000,11.210,0.000,0.000,34.641
9143,4.190,0.000,2.874,0.000,11.210,0.000,0.000,34.617
9161,4.190,0.000,2.874,0.000,11.210,0.000,0.000,34.611
9179,4.190,0.000,2.874,0.000,11.210,0.000,0.000,34.648
9197,4.190,0.000,2.874,0.000,11.210,0.000,0.000,34.615
9215,4.190,0.000,2.874,0.000,11.210,0.000,0.000,34.629
9233,4.190,0.000,2.874,0.000,11.210,0.000,0.000,34.639
9251,4.189,0.000,2.874,0.000,11.210,0.000,0.000,34.625
9269,4.189,0.000,2.874,0.000,11.210,0.000,0.000,34.611
9287,4.189,0.000,2.874,0.000,11.210,0.000,0.000,34.573
9305,4.189,0.000,2.874,0.000,11.210,0.000,0.000,34.638
9323,4.189,0.000,2.874,0.000,11.210,0.000,0.000,34.607
9341,4.189,0.000,2.874,0.000,11.210,0.000,0.000,34.610
9359,4.189,0.000,2.874,0.000,11.210,0.000,0.000,34.613
9377,4.189,0.000,2.874,0.000,11.210,0.000,0.000,34.593
9395,4.189,0.000,2.874,0.000,11.210,0.000,0.000,34.643
9413,4.189,0.000,2.874,0.000,11.210,0.000,0.000,34.584
9431,4.188,0.000,2.874,0.000,11.210,0.000,0.000,34.627
9449,4.188,0.000,2.874,0.000,11.210,0.000,0.000,34.592
9467,4.188,0.000,2.874,0.000,11.210,0.000,0.000,34.585
9485,4.188,0.000,2.874,0.000,11.210,0.000,0.000,34.581
9503,4.188,0.000,2.874,0.000,11.210,0.000,0.000,34.622
9521,4.188,0.000,2.874,0.000,11.210,0.000,0.000,34.606
9539,4.188,0.000,2.874,0.000,11.210,0.000,0.000,34.649
9557,4.188,0.000,2.874,0.000,11.210,0.000,0.000,34.606
9575,4.188,0.000,2.874,0.000,11.210,0.000,0.000,34.611
9593,4.188,0.000,2.874,0.000,11.210,0.000,0.000,34.585
9611,4.188,0.000,2.874,0.000,11.210,0.000,0.000,34.613
9629,4.188,0.000,2.874,0.000,11.210,0.000,0.000,34.617
9647,4.187,0.000,2.874,0.000,11.210,0.000,0.000,34.604
9665,4.187,0.000,2.874,0.000,11.210,0.000,0.000,34.612
9683,4.187,0.000,2.874,0.000,11.210,0.000,0.000,34.590
9701,4.187,0.000,2.874,0.000,11.210,0.000,0.000,34.614
9719,4.187,0.000,2.874,0.000,11.210,0.000,0.000,34.615
9737,4.187,0.000,2.874,0.000,11.210,0.000,0.000,34.601
9755,4.187,0.000,2.874,0.000,11.210,0.000,0.000,34.646
9773,4.187,0.000,2.874,0.000,11.210,0.000,0.000,34.647
9791,4.187,0.000,2.874,0.000,11.210,0.000,0.000,34.593
9809,4.187,0.000,2.874,0.000,11.210,0.000,0.000,34.636
9827,4.187,0.000,2.874,0.000,11.210,0.000,0.000,34.603
9845,4.187,0.000,2.874,0.000,11.210,0.000,0.000,34.611
9863,4.187,0.000,2.874,0.000,11.210,0.000,0.000,34.638
9881,4.187,0.000,2.874,0.000,11.210,0.000,0.000,34.636
9899,4.186,0.000,2.874,0.000,11.210,0.000,0.000,34.603
9917,4.186,0.000,2.874,0.000,11.210,0.000,0.000,34.633
9935,4.186,0.000,2.874,0.000,11.210,0.000,0.000,34.663
9953,4.186,0.000,2.874,0.000,11.210,0.000,0.000,34.663
9971,4.186,0.000,2.874,0.000,11.210,0.000,0.000,34.648
9989,4.186,0.000,2.874,0.000,11.210,0.000,0.000,34.588
10007,4.186,0.000,2.874,0.000,11.210,0.000,0.000,34.599
10025,4.186,0.000,2.874,0.000,11.210,0.000,0.000,34.616
10043,4.186,0.000,2.874,0.000,11.210,0.000,0.000,34.649
10061,4.186,0.000,2.874,0.000,11.210,0.000,0.000,34.609
10079,4.186,0.000,2.874,0.000,11.210,0.000,0.000,34.609
10097,4.186,0.000,2.874,0.000,11.210,0.000,0.000,34.593
10115,4.186,0.000,2.874,0.000,11.210,0.000,0.000,34.659
10133,4.186,0.000,2.874,0.000,11.210,0.000,0.000,34.628
10151,4.186,0.000,2.874,0.000,11.210,0.000,0.000,34.630
10169,4.186,0.000,2.874,0.000,11.210,0.000,0.000,34.598
10187,4.186,0.000,2.874,0.000,11.210,0.000,0.000,34.634
10205,4.186,0.000,2.874,0.000,11.210,0.000,0.000,34.626
10223,4.186,0.000,2.874,0.000,11.210,0.000,0.000,34.620
10241,4.185,0.000,2.874,0.000,11.210,0.000,0.000,34.595
10259,4.185,0.000,2.874,0.000,11.210,0.000,0.000,34.601
10277,4.185,0.000,2.874,0.000,11.210,0.000,0.000,34.593
10295,4.185,0.000,2.874,0.000,11.210,0.000,0.000,34.572
10313,4.185,0.000,2.874,0.000,11.210,0.000,0.000,34.648
10331,4.185,0.000,2.874,0.000,11.210,0.000,0.000,34.668
10349,4.185,0.000,2.874,0.000,11.210,0.000,0.000,34.655
10367,4.185,0.000,2.874,0.000,11.210,0.000,0.000,34.611
10385,4.185,0.000,2.874,0.000,11.210,0.000,0.000,34.578
10403,4.185,0.000,2.874,0.000,11.210,0.000,0.000,34.618
10421,4.185,0.000,2.874,0.000,11.210,0.000,0.000,34.623
10439,4.185,0.000,2.874,0.000,11.210,0.000,0.000,34.609
10457,4.185,0.000,2.874,0.000,11.210,0.000,0.000,34.629
10475,4.185,0.000,2.874,0.000,11.210,0.000,0.000,34.631
10493,4.185,0.000,2.874,0.000,11.210,0.000,0.000,34.618
10511,4.185,0.000,2.874,0.000,11.210,0.000,0.000,34.641
10529,4.185,0.000,2.874,0.000,11.210,0.000,0.000,34.624
10547,4.185,0.000,2.874,0.000,11.210,0.000,0.000,34.623
10565,4.185,0.000,2.874,0.000,11.210,0.000,0.000,34.651
10583,4.185,0.000,2.874,0.000,11.210,0.000,0.000,34.585
10601,4.185,0.000,2.874,0.000,11.210,0.000,0.000,34.629
10619,4.184,0.000,2.874,0.000,11.210,0.000,0.000,34.640
10637,4.185,0.000,2.874,0.000,11.210,0.000,0.000,34.608
10655,4.184,0.000,2.874,0.000,11.210,0.000,0.000,34.594
10673,4.184,0.000,2.874,0.000,11.210,0.000,0.000,34.638
10691,4.184,0.000,2.874,0.000,11.210,0.000,0.000,34.600
10709,4.184,0.000,2.874,0.000,11.210,0.000,0.000,34.684
10727,4.184,0.000,2.874,0.000,11.210,0.000,0.000,34.639
10745,4.184,0.000,2.874,0.000,11.210,0.000,0.000,34.612
10763,4.184,0.000,2.874,0.000,11.210,0.000,0.000,34.596
10781,4.184,0.000,2.874,0.000,11.210,0.000,0.000,34.603
10799,4.184,0.000,2.874,0.000,11.210,0.000,0.000,34.610
10817,4.184,0.000,2.874,0.000,11.210,0.000,0.000,34.622
10835,4.184,0.000,2.874,0.000,11.210,0.000,0.000,34.601
10853,4.184,0.000,2.874,0.000,11.210,0.000,0.000,34.577
10871,4.184,0.000,2.874,0.000,11.210,0.000,0.000,34.625
10889,4.184,0.000,2.874,0.000,11.210,0.000,0.000,34.614
10907,4.184,0.000,2.874,0.000,11.210,0.000,0.000,34.598
10925,4.184,0.000,2.874,0.000,11.210,0.000,0.000,34.615
10943,4.184,0.000,2.874,0.000,11.210,0.000,0.000,34.639
10961,4.184,0.000,2.874,0.000,11.210,0.000,0.000,34.598
10979,4.184,0.000,2.874,0.000,11.210,0.000,0.000,34.622
10997,4.184,0.000,2.874,0.000,11.210,0.000,0.000,34.602
11015,4.184,0.000,2.874,0.000,11.210,0.000,0.000,34.621
11033,4.184,0.000,2.874,0.000,11.210,0.000,0.000,34.606
11051,4.184,0.000,2.874,0.000,11.210,0.000,0.000,34.599
11069,4.184,0.000,2.874,0.000,11.210,0.000,0.000,34.624
11087,4.184,0.000,2.874,0.000,11.210,0.000,0.000,34.632
11105,4.184,0.000,2.874,0.000,11.210,0.000,0.000,34.627
11123,4.184,0.000,2.874,0.000,11.210,0.000,0.000,34.661
11141,4.184,0.000,2.874,0.000,11.210,0.000,0.000,34.637
11159,4.183,0.000,2.874,0.000,11.210,0.000,0.000,34.625
11177,4.183,0.000,2.874,0.000,11.210,0.000,0.000,34.634
11195,4.183,0.000,2.874,0.000,11.210,0.000,0.000,34.641
11213,4.183,0.000,2.874,0.000,11.210,0.000,0.000,34.646
11231,4.183,0.000,2.874,0.000,11.210,0.000,0.000,34.654
11249,4.183,0.000,2.874,0.000,11.210,0.000,0.000,34.652
11267,4.183,0.000,2.874,0.000,11.210,0.000,0.000,34.657
11285,4.183,0.000,2.874,0.000,11.210,0.000,0.000,34.615
11303,4.183,0.000,2.874,0.000,11.210,0.000,0.000,34.636
11321,4.183,0.000,2.874,0.000,11.210,0.000,0.000,34.653
11339,4.183,0.000,2.874,0.000,11.210,0.000,0.000,34.605
11357,4.183,0.000,2.874,0.000,11.210,0.000,0.000,34.615
11375,4.183,0.000,2.874,0.000,11.210,0.000,0.000,34.598
11393,4.183,0.000,2.874,0.000,11.210,0.000,0.000,34.602
11411,4.183,0.000,2.874,0.000,11.210,0.000,0.000,34.637
11429,4.183,0.000,2.874,0.000,11.210,0.000,0.000,34.645
11447,4.183,0.000,2.874,0.000,11.210,0.000,0.000,34.636
11465,4.183,0.000,2.874,0.000,11.210,0.000,0.000,34.622
11483,4.183,0.000,2.874,0.000,11.210,0.000,0.000,34.605
11501,4.183,0.000,2.874,0.000,11.210,0.000,0.000,34.620
11519,4.183,0.000,2.874,0.000,11.210,0.000,0.000,34.614
11537,4.183,0.000,2.874,0.000,11.210,0.000,0.000,34.629
11555,4.183,0.000,2.874,0.000,11.210,0.000,0.000,34.623
11573,4.183,0.000,2.874,0.000,11.210,0.000,0.000,34.619
11591,4.183,0.000,2.874,0.000,11.210,0.000,0.000,34.588
11609,4.183,0.000,2.874,0.000,11.210,0.000,0.000,34.644
11627,4.183,0.000,2.874,0.000,11.210,0.000,0.000,34.593
11645,4.183,0.000,2.874,0.000,11.210,0.000,0.000,34.632
11663,4.183,0.000,2.874,0.000,11.210,0.000,0.000,34.589
11681,4.183,0.000,2.874,0.000,11.210,0.000,0.000,34.600
11699,4.183,0.000,2.874,0.000,11.210,0.000,0.000,34.592
11717,4.183,0.000,2.874,0.000,11.210,0.000,0.000,34.605
11735,4.183,0.000,2.874,0.000,11.210,0.000,0.000,34.633
11753,4.183,0.000,2.874,0.000,11.210,0.000,0.000,34.614
11771,4.182,0.000,2.874,0.000,11.210,0.000,0.000,34.622
11789,4.183,0.000,2.874,0.000,11.210,0.000,0.000,34.632
11807,4.182,0.000,2.874,0.000,11.210,0.000,0.000,34.630
11825,4.182,0.000,2.874,0.000,11.210,0.000,0.000,34.621
11843,4.182,0.000,2.874,0.000,11.210,0.000,0.000,34.656
11861,4.182,0.000,2.874,0.000,11.210,0.000,0.000,34.613
11879,4.182,0.000,2.874,0.000,11.210,0.000,0.000,34.631
11897,4.182,0.000,2.874,0.000,11.210,0.000,0.000,34.603
11915,4.182,0.000,2.874,0.000,11.210,0.000,0.000,34.658
11933,4.182,0.000,2.874,0.000,11.210,0.000,0.000,34.616
11951,4.182,0.000,2.874,0.000,11.210,0.000,0.000,34.632
11969,4.182,0.000,2.874,0.000,11.210,0.000,0.000,34.617
11987,4.182,0.000,2.874,0.000,11.210,0.000,0.000,34.641
12005,4.182,0.000,2.874,0.000,11.210,0.000,0.000,34.645
12023,4.182,0.000,2.874,0.000,11.210,0.000,0.000,34.641
12041,4.182,0.000,2.874,0.000,11.210,0.000,0.000,34.625
12059,4.182,0.000,2.874,0.000,11.210,0.000,0.000,34.631
12077,4.182,0.000,2.874,0.000,11.210,0.000,0.000,34.625
12095,4.182,0.000,2.874,0.000,11.210,0.000,0.000,34.625
12113,4.182,0.000,2.874,0.000,11.210,0.000,0.000,34.667
12131,4.182,0.000,2.874,0.000,11.210,0.000,0.000,34.649
12149,4.182,0.000,2.874,0.000,11.210,0.000,0.000,34.578
12167,4.182,0.000,2.874,0.000,11.210,0.000,0.000,34.606
12185,4.182,0.000,2.874,0.000,11.210,0.000,0.000,34.638
12203,4.182,0.000,2.874,0.000,11.210,0.000,0.000,34.622
12221,4.182,0.000,2.874,0.000,11.210,0.000,0.000,34.675
12239,4.182,0.000,2.874,0.000,11.210,0.000,0.000,34.628
12257,4.182,0.000,2.874,0.000,11.210,0.000,0.000,34.632
12275,4.182,0.000,2.874,0.000,11.210,0.000,0.000,34.713
12293,4.182,0.000,2.874,0.000,11.210,0.000,0.000,34.660
12311,4.182,0.000,2.874,0.000,11.210,0.000,0.000,34.643
12328,3.150,-16.751,2.874,0.047,11.210,0.150,-0.011,35.095
12346,2.983,-16.750,2.874,0.130,11.210,0.407,-0.011,37.868
12364,4.003,0.000,2.874,0.176,11.210,0.539,0.006,40.361
12382,4.052,0.000,2.874,0.176,11.210,0.539,0.001,41.039
12400,4.070,0.000,2.874,0.176,11.210,0.539,0.001,41.072
12418,4.080,0.000,2.874,0.176,11.210,0.539,0.001,40.888
12436,4.088,0.000,2.874,0.176,11.210,0.539,0.000,40.549
12454,4.092,0.000,2.874,0.176,11.210,0.539,0.000,40.095
12472,4.095,0.000,2.874,0.176,11.210,0.539,0.000,39.716
12490,4.097,0.000,2.874,0.176,11.210,0.539,0.000,39.422
12508,4.098,0.000,2.874,0.176,11.210,0.539,0.000,39.041
12526,4.099,0.000,2.874,0.176,11.210,0.539,0.000,38.794
12544,4.100,0.000,2.874,0.176,11.210,0.539,0.000,38.572
12562,4.100,0.000,2.874,0.176,11.210,0.539,0.000,38.301
12580,4.101,0.000,2.874,0.176,11.210,0.539,0.000,38.058
12598,4.101,0.000,2.874,0.176,11.210,0.539,0.000,37.886
12616,4.101,0.000,2.874,0.176,11.210,0.539,0.000,37.585
12634,4.101,0.000,2.874,0.176,11.210,0.539,0.000,37.451
12652,4.101,0.000,2.874,0.176,11.210,0.539,0.000,37.262
12670,4.102,0.000,2.874,0.176,11.210,0.539,0.000,37.079
12688,4.102,0.000,2.874,0.176,11.210,0.539,0.000,36.955
12706,4.102,0.000,2.874,0.176,11.210,0.539,0.000,36.817
12724,4.102,0.000,2.874,0.176,11.210,0.539,0.000,36.697
12742,4.102,0.000,2.874,0.176,11.210,0.539,0.000,36.551
12760,4.102,0.000,2.874,0.176,11.210,0.539,0.000,36.518
12778,4.102,0.000,2.874,0.176,11.210,0.539,0.000,36.381
12796,4.102,0.000,2.874,0.176,11.210,0.539,0.000,36.301
12814,4.102,0.000,2.874,0.176,11.210,0.539,0.000,36.151
12832,4.102,0.000,2.874,0.176,11.210,0.539,0.000,36.033
12850,4.102,0.000,2.874,0.176,11.210,0.539,0.000,35.958
12868,4.102,0.000,2.874,0.176,11.210,0.539,0.000,35.924
12886,4.103,0.000,2.874,0.176,11.210,0.539,0.000,35.880
12904,4.103,0.000,2.874,0.176,11.210,0.539,0.000,35.752
12922,4.103,0.000,2.874,0.176,11.210,0.539,0.000,35.741
12940,4.103,0.000,2.874,0.176,11.210,0.539,0.000,35.630
12958,4.103,0.000,2.874,0.176,11.210,0.539,0.000,35.620
12976,4.103,0.000,2.874,0.176,11.210,0.539,0.000,35.624
12994,4.103,0.000,2.874,0.176,11.210,0.539,0.000,35.508
13012,4.103,0.000,2.874,0.176,11.210,0.539,0.000,35.416
13030,4.103,0.000,2.874,0.176,11.210,0.539,0.000,35.445
13048,4.103,0.000,2.874,0.176,11.210,0.539,0.000,35.376
13066,4.103,0.000,2.874,0.176,11.210,0.539,0.000,35.339
13084,4.103,0.000,2.874,0.176,11.210,0.539,0.000,35.268
13102,4.103,0.000,2.874,0.176,11.210,0.539,0.000,35.268
13120,4.103,0.000,2.874,0.176,11.210,0.539,0.000,35.201
13138,4.103,0.000,2.874,0.176,11.210,0.539,0.000,35.199
13156,4.103,0.000,2.874,0.176,11.210,0.539,0.000,35.159
13174,4.103,0.000,2.874,0.176,11.210,0.539,0.000,35.163
13192,4.103,0.000,2.874,0.176,11.210,0.539,0.000,35.067
13210,4.103,0.000,2.874,0.176,11.210,0.539,0.000,35.112
13228,4.103,0.000,2.874,0.176,11.210,0.539,0.000,35.085
13246,4.103,0.000,2.874,0.176,11.210,0.539,0.000,35.077
13264,4.103,0.000,2.874,0.176,11.210,0.539,0.000,35.031
13282,4.103,0.000,2.874,0.176,11.210,0.539,0.000,35.037
13300,4.103,0.000,2.874,0.176,11.210,0.539,0.000,35.019
13318,4.103,0.000,2.874,0.176,11.210,0.539,0.000,34.978
13336,4.103,0.000,2.874,0.176,11.210,0.539,0.000,34.996
13354,4.103,0.000,2.874,0.176,11.210,0.539,0.000,34.975
13372,4.103,0.000,2.874,0.176,11.210,0.539,0.000,34.955
13390,4.103,0.000,2.874,0.176,11.210,0.539,0.000,34.956
13408,4.103,0.000,2.874,0.176,11.210,0.539,0.000,34.890
13426,4.103,0.000,2.874,0.176,11.210,0.539,0.000,34.896
13444,4.103,0.000,2.874,0.176,11.210,0.539,0.000,34.816
13462,4.103,0.000,2.874,0.176,11.210,0.539,0.000,34.860
13480,4.103,0.000,2.874,0.176,11.210,0.539,0.000,34.867
13498,4.103,0.000,2.874,0.176,11.210,0.539,0.000,34.839
13516,4.103,0.000,2.874,0.176,11.210,0.539,0.000,34.843
13534,4.103,0.000,2.874,0.176,11.210,0.539,0.000,34.866
13552,4.103,0.000,2.874,0.176,11.210,0.539,0.000,34.871
13570,4.103,0.000,2.874,0.176,11.210,0.539,0.000,34.824
13588,4.103,0.000,2.874,0.176,11.210,0.539,0.000,34.855
13606,4.103,0.000,2.874,0.176,11.210,0.539,0.000,34.794
13624,4.103,0.000,2.874,0.176,11.210,0.539,0.000,34.828
13642,4.103,0.000,2.874,0.176,11.210,0.539,0.000,34.791
13660,4.103,0.000,2.874,0.176,11.210,0.539,0.000,34.760
13678,4.103,0.000,2.874,0.176,11.210,0.539,0.000,34.788
13696,4.104,0.000,2.874,0.176,11.210,0.539,0.000,34.811
13714,4.103,0.000,2.874,0.176,11.210,0.539,0.000,34.764
13732,4.103,0.000,2.874,0.176,11.210,0.539,0.000,34.785
13750,4.103,0.000,2.874,0.176,11.210,0.539,0.000,34.783
13768,4.104,0.000,2.874,0.176,11.210,0.539,0.000,34.754
13786,4.104,0.000,2.874,0.176,11.210,0.539,0.000,34.791
13804,4.103,0.000,2.874,0.176,11.210,0.539,0.000,34.788
13822,4.104,0.000,2.874,0.176,11.210,0.539,0.000,34.730
13840,4.104,0.000,2.874,0.176,11.210,0.539,0.000,34.732
13858,4.104,0.000,2.874,0.176,11.210,0.539,0.000,34.746
13876,4.104,0.000,2.874,0.176,11.210,0.539,0.000,34.709
13894,4.104,0.000,2.874,0.176,11.210,0.539,0.000,34.710
13912,4.104,0.000,2.874,0.176,11.210,0.539,0.000,34.751
13930,4.104,0.000,2.874,0.176,11.210,0.539,0.000,34.700
13948,4.104,0.000,2.874,0.176,11.210,0.539,0.000,34.745
13966,4.104,0.000,2.874,0.176,11.210,0.539,0.000,34.703
13984,4.104,0.000,2.874,0.176,11.210,0.539,0.000,34.731
14002,4.104,0.000,2.874,0.176,11.210,0.539,0.000,34.694
14020,4.104,0.000,2.874,0.176,11.210,0.539,0.000,34.740
14038,4.104,0.000,2.874,0.176,11.210,0.539,0.000,34.720
14056,4.104,0.000,2.874,0.176,11.210,0.539,0.000,34.716
14074,4.104,0.000,2.874,0.176,11.210,0.539,0.000,34.719
14092,4.104,0.000,2.874,0.176,11.210,0.539,0.000,34.703
14110,4.104,0.000,2.874,0.176,11.210,0.539,0.000,34.669
14128,4.104,0.000,2.874,0.176,11.210,0.539,0.000,34.702
14146,4.104,0.000,2.874,0.176,11.210,0.539,0.000,34.717
14164,4.104,0.000,2.874,0.176,11.210,0.539,0.000,34.723
14182,4.104,0.000,2.874,0.176,11.210,0.539,0.000,34.727
14200,4.104,0.000,2.874,0.176,11.210,0.539,0.000,34.705
14218,4.104,0.000,2.874,0.176,11.210,0.539,0.000,34.690
14236,4.104,0.000,2.874,0.176,11.210,0.539,0.000,34.747
14254,4.104,0.000,2.874,0.176,11.210,0.539,0.000,34.675
14272,4.104,0.000,2.874,0.176,11.210,0.539,0.000,34.705
14290,4.104,0.000,2.874,0.176,11.210,0.539,0.000,34.712
14308,4.104,0.000,2.874,0.176,11.210,0.539,0.000,34.703
14326,4.104,0.000,2.874,0.176,11.210,0.539,0.000,34.689
14344,4.104,0.000,2.874,0.176,11.210,0.539,0.000,34.681
14362,4.104,0.000,2.874,0.176,11.210,0.539,0.000,34.694
14380,4.104,0.000,2.874,0.176,11.210,0.539,0.000,34.646
14398,4.104,0.000,2.874,0.176,11.210,0.539,0.000,34.692
14416,4.104,0.000,2.874,0.176,11.210,0.539,0.000,34.663
14434,4.104,0.000,2.874,0.176,11.210,0.539,0.000,34.681
14452,4.104,0.000,2.874,0.176,11.210,0.539,0.000,34.692
14470,4.104,0.000,2.874,0.176,11.210,0.539,0.000,34.670
14488,4.104,0.000,2.874,0.176,11.210,0.539,0.000,34.682
14506,4.104,0.000,2.874,0.176,11.210,0.539,0.000,34.679
14524,4.104,0.000,2.874,0.176,11.210,0.539,0.000,34.721
14542,4.104,0.000,2.874,0.176,11.210,0.539,0.000,34.714
14560,4.104,0.000,2.874,0.176,11.210,0.539,0.000,34.679
14578,4.104,0.000,2.874,0.176,11.210,0.539,0.000,34.671
14596,4.104,0.000,2.874,0.176,11.210,0.539,0.000,34.687
14614,4.104,0.000,2.874,0.176,11.210,0.539,0.000,34.658
14632,4.104,0.000,2.874,0.176,11.210,0.539,0.000,34.683
14650,4.104,0.000,2.874,0.176,11.210,0.539,0.000,34.675
14668,4.104,0.000,2.874,0.176,11.210,0.539,0.000,34.672
14686,4.104,0.000,2.874,0.176,11.210,0.539,0.000,34.661
14704,4.104,0.000,2.874,0.176,11.210,0.539,0.000,34.681
14722,4.104,0.000,2.874,0.176,11.210,0.539,0.000,34.703
14740,4.104,0.000,2.874,0.176,11.210,0.539,0.000,34.691
14758,4.104,0.000,2.874,0.176,11.210,0.539,0.000,34.628
14776,4.104,0.000,2.874,0.176,11.210,0.539,0.000,34.674
14794,4.104,0.000,2.874,0.176,11.210,0.539,0.000,34.725
14812,4.104,0.000,2.874,0.176,11.210,0.539,0.000,34.667
14830,4.104,0.000,2.874,0.176,11.210,0.539,0.000,34.687
14848,4.104,0.000,2.874,0.176,11.210,0.539,0.000,34.657
14866,4.104,0.000,2.874,0.176,11.210,0.539,0.000,34.694
14884,4.104,0.000,2.874,0.176,11.210,0.539,0.000,34.680
14902,4.104,0.000,2.874,0.176,11.210,0.539,0.000,34.679
14920,4.104,0.000,2.874,0.176,11.210,0.539,0.000,34.687
14938,4.104,0.000,2.874,0.176,11.210,0.539,0.000,34.727
14956,4.104,0.000,2.874,0.176,11.210,0.539,0.000,34.691
14974,4.104,0.000,2.874,0.176,11.210,0.539,0.000,34.683
14992,4.104,0.000,2.874,0.176,11.210,0.539,0.000,34.712
15010,4.104,0.000,2.874,0.176,11.210,0.539,0.000,34.718
15028,4.104,0.000,2.874,0.176,11.210,0.539,0.000,34.689
15046,4.104,0.000,2.874,0.176,11.210,0.539,0.000,34.685
15064,4.104,0.000,2.874,0.176,11.210,0.539,0.000,34.687
15082,4.104,0.000,2.874,0.176,11.210,0.539,0.000,34.698
15100,4.104,0.000,2.874,0.176,11.210,0.539,0.000,34.682
15118,4.104,0.000,2.874,0.176,11.210,0.539,0.000,34.692
15136,4.104,0.000,2.874,0.176,11.210,0.539,0.000,34.656
15154,4.104,0.000,2.874,0.176,11.210,0.539,0.000,34.693
15172,4.104,0.000,2.874,0.176,11.210,0.539,0.000,34.670
15190,4.104,0.000,2.874,0.176,11.210,0.539,0.000,34.676
15208,4.104,0.000,2.874,0.176,11.210,0.539,0.000,34.709
15226,4.104,0.000,2.874,0.176,11.210,0.539,0.000,34.677
15244,4.104,0.000,2.874,0.176,11.210,0.539,0.000,34.644
15262,4.104,0.000,2.874,0.176,11.210,0.539,0.000,34.676
15280,4.104,0.000,2.874,0.176,11.210,0.539,0.000,34.676
15298,4.104,0.000,2.874,0.176,11.210,0.539,0.000,34.674
15316,4.104,0.000,2.874,0.176,11.210,0.539,0.000,34.658
15334,4.104,0.000,2.874,0.176,11.210,0.539,0.000,34.662
15352,4.104,0.000,2.874,0.176,11.210,0.539,0.000,34.711
15370,4.104,0.000,2.874,0.176,11.210,0.539,0.000,34.673
15388,4.104,0.000,2.874,0.176,11.210,0.539,0.000,34.641
15406,4.104,0.000,2.874,0.176,11.210,0.539,0.000,34.680
15424,4.104,0.000,2.874,0.176,11.210,0.539,0.000,34.689
15442,4.104,0.000,2.874,0.176,11.210,0.539,0.000,34.704
15460,4.104,0.000,2.874,0.176,11.210,0.539,0.000,34.731
15478,4.104,0.000,2.874,0.176,11.210,0.539,0.000,34.675
15496,4.104,0.000,2.874,0.176,11.210,0.539,0.000,34.653
15514,4.104,0.000,2.874,0.176,11.210,0.539,0.000,34.701
15532,4.104,0.000,2.874,0.176,11.210,0.539,0.000,34.698
15550,4.104,0.000,2.874,0.176,11.210,0.539,0.000,34.674
15568,4.104,0.000,2.874,0.176,11.210,0.539,0.000,34.672
15586,4.104,0.000,2.874,0.176,11.210,0.539,0.000,34.661
15604,4.104,0.000,2.874,0.176,11.210,0.539,0.000,34.680
15622,4.104,0.000,2.874,0.176,11.210,0.539,0.000,34.706
15640,4.104,0.000,2.874,0.176,11.210,0.539,0.000,34.640
15658,4.104,0.000,2.874,0.176,11.210,0.539,0.000,34.660
15676,4.104,0.000,2.874,0.176,11.210,0.539,0.000,34.656
15694,4.104,0.000,2.874,0.176,11.210,0.539,0.000,34.693
15712,4.104,0.000,2.874,0.176,11.210,0.539,0.000,34.663
15730,4.104,0.000,2.874,0.176,11.210,0.539,0.000,34.668
15748,4.104,0.000,2.874,0.176,11.210,0.539,0.000,34.659
15766,4.104,0.000,2.874,0.176,11.210,0.539,0.000,34.655
15784,4.104,0.000,2.874,0.176,11.210,0.539,0.000,34.624
15802,4.104,0.000,2.874,0.176,11.210,0.539,0.000,34.657
15820,4.104,0.000,2.874,0.176,11.210,0.539,0.000,34.670
15838,4.104,0.000,2.874,0.176,11.210,0.539,0.000,34.645
15856,4.104,0.000,2.874,0.176,11.210,0.539,0.000,34.692
15874,4.104,0.000,2.874,0.176,11.210,0.539,0.000,34.670
15892,4.104,0.000,2.874,0.176,11.210,0.539,0.000,34.658
15910,4.104,0.000,2.874,0.176,11.210,0.539,0.000,34.685
15928,4.104,0.000,2.874,0.176,11.210,0.539,0.000,34.674
15946,4.104,0.000,2.874,0.176,11.210,0.539,0.000,34.667
15956,4.104,0.000,2.874,0.176,11.210,0.539,0.000,34.716