File: data/T35/5C/6.csv
time_s,voltage_v,current_a,chargecapacity_ah,dischargecapacity_ah,charge_energy_wh,discharge_energy_wh,voltagedot_v_per_s,temp_degc
1,3.355,0.000,0.000,0.000,0.000,0.000,0.000,34.510
19,3.355,0.000,0.000,0.000,0.000,0.000,0.000,34.461
37,3.355,0.000,0.000,0.000,0.000,0.000,0.000,34.496
55,3.355,0.000,0.000,0.000,0.000,0.000,0.000,34.510
72,3.480,1.625,0.005,0.000,0.019,0.000,0.001,34.482
90,3.490,1.625,0.014,0.000,0.047,0.000,0.001,34.512
108,3.497,1.625,0.022,0.000,0.076,0.000,0.000,34.577
126,3.503,1.625,0.030,0.000,0.104,0.000,0.000,34.598
144,3.508,1.625,0.038,0.000,0.132,0.000,0.000,34.676
162,3.513,1.625,0.046,0.000,0.161,0.000,0.000,34.707
180,3.517,1.625,0.054,0.000,0.190,0.000,0.000,34.707
198,3.521,1.625,0.062,0.000,0.218,0.000,0.000,34.725
216,3.525,1.625,0.070,0.000,0.247,0.000,0.000,34.780
234,3.529,1.625,0.079,0.000,0.275,0.000,0.000,34.824
252,3.533,1.625,0.087,0.000,0.304,0.000,0.000,34.834
270,3.536,1.625,0.095,0.000,0.333,0.000,0.000,34.851
288,3.540,1.625,0.103,0.000,0.362,0.000,0.000,34.865
306,3.544,1.625,0.111,0.000,0.390,0.000,0.000,34.895
324,3.547,1.625,0.119,0.000,0.419,0.000,0.000,34.912
342,3.550,1.625,0.127,0.000,0.448,0.000,0.000,34.927
360,3.554,1.625,0.135,0.000,0.477,0.000,0.000,34.957
378,3.557,1.625,0.144,0.000,0.506,0.000,0.000,34.990
396,3.560,1.625,0.152,0.000,0.535,0.000,0.000,35.013
414,3.563,1.625,0.160,0.000,0.564,0.000,0.000,35.039
432,3.566,1.625,0.168,0.000,0.593,0.000,0.000,35.013
450,3.569,1.625,0.176,0.000,0.622,0.000,0.000,35.085
468,3.572,1.625,0.184,0.000,0.651,0.000,0.000,35.105
486,3.575,1.625,0.192,0.000,0.680,0.000,0.000,35.042
504,3.578,1.625,0.200,0.000,0.709,0.000,0.000,35.122
522,3.581,1.625,0.209,0.000,0.738,0.000,0.000,35.062
540,3.584,1.625,0.217,0.000,0.767,0.000,0.000,35.046
558,3.587,1.625,0.225,0.000,0.796,0.000,0.000,35.075
576,3.590,1.625,0.233,0.000,0.825,0.000,0.000,35.090
594,3.593,1.625,0.241,0.000,0.854,0.000,0.000,35.136
612,3.595,1.625,0.249,0.000,0.884,0.000,0.000,35.097
630,3.598,1.625,0.257,0.000,0.913,0.000,0.000,35.084
648,3.600,1.625,0.265,0.000,0.942,0.000,0.000,35.161
666,3.603,1.625,0.274,0.000,0.971,0.000,0.000,35.135
684,3.605,1.625,0.282,0.000,1.001,0.000,0.000,35.111
702,3.608,1.625,0.290,0.000,1.030,0.000,0.000,35.157
720,3.610,1.625,0.298,0.000,1.059,0.000,0.000,35.131
738,3.612,1.625,0.306,0.000,1.089,0.000,0.000,35.127
756,3.614,1.625,0.314,0.000,1.118,0.000,0.000,35.142
774,3.616,1.625,0.322,0.000,1.147,0.000,0.000,35.128
792,3.618,1.625,0.330,0.000,1.177,0.000,0.000,35.152
810,3.620,1.625,0.339,0.000,1.206,0.000,0.000,35.169
828,3.622,1.625,0.347,0.000,1.236,0.000,0.000,35.126
846,3.624,1.625,0.355,0.000,1.265,0.000,0.000,35.145
864,3.626,1.625,0.363,0.000,1.295,0.000,0.000,35.169
882,3.627,1.625,0.371,0.000,1.324,0.000,0.000,35.193
900,3.629,1.625,0.379,0.000,1.353,0.000,0.000,35.139
918,3.631,1.625,0.387,0.000,1.383,0.000,0.000,35.163
936,3.633,1.625,0.395,0.000,1.412,0.000,0.000,35.186
954,3.635,1.625,0.404,0.000,1.442,0.000,0.000,35.209
972,3.636,1.625,0.412,0.000,1.472,0.000,0.000,35.212
990,3.638,1.625,0.420,0.000,1.501,0.000,0.000,35.175
1008,3.640,1.625,0.428,0.000,1.531,0.000,0.000,35.179
1026,3.642,1.625,0.436,0.000,1.560,0.000,0.000,35.193
1044,3.644,1.625,0.444,0.000,1.590,0.000,0.000,35.167
1062,3.645,1.625,0.452,0.000,1.620,0.000,0.000,35.253
1080,3.647,1.625,0.460,0.000,1.649,0.000,0.000,35.254
1098,3.649,1.625,0.469,0.000,1.679,0.000,0.000,35.215
1116,3.651,1.625,0.477,0.000,1.708,0.000,0.000,35.223
1134,3.653,1.625,0.485,0.000,1.738,0.000,0.000,35.232
1152,3.654,1.625,0.493,0.000,1.768,0.000,0.000,35.252
1170,3.656,1.625,0.501,0.000,1.798,0.000,0.000,35.237
1188,3.658,1.625,0.509,0.000,1.827,0.000,0.000,35.248
1206,3.660,1.625,0.517,0.000,1.857,0.000,0.000,35.252
1224,3.662,1.625,0.526,0.000,1.887,0.000,0.000,35.258
1242,3.663,1.625,0.534,0.000,1.916,0.000,0.000,35.262
1260,3.665,1.625,0.542,0.000,1.946,0.000,0.000,35.234
1278,3.667,1.625,0.550,0.000,1.976,0.000,0.000,35.276
1296,3.669,1.625,0.558,0.000,2.006,0.000,0.000,35.255
1314,3.671,1.625,0.566,0.000,2.036,0.000,0.000,35.268
1332,3.672,1.625,0.574,0.000,2.066,0.000,0.000,35.292
1350,3.674,1.625,0.582,0.000,2.095,0.000,0.000,35.349
1368,3.676,1.625,0.591,0.000,2.125,0.000,0.000,35.343
1386,3.678,1.625,0.599,0.000,2.155,0.000,0.000,35.337
1404,3.680,1.625,0.607,0.000,2.185,0.000,0.000,35.343
1422,3.681,1.625,0.615,0.000,2.215,0.000,0.000,35.297
1440,3.683,1.625,0.623,0.000,2.245,0.000,0.000,35.347
1458,3.685,1.625,0.631,0.000,2.275,0.000,0.000,35.336
1476,3.687,1.625,0.639,0.000,2.305,0.000,0.000,35.336
1494,3.688,1.625,0.647,0.000,2.335,0.000,0.000,35.370
1512,3.690,1.625,0.656,0.000,2.365,0.000,0.000,35.327
1530,3.692,1.625,0.664,0.000,2.395,0.000,0.000,35.359
1548,3.694,1.625,0.672,0.000,2.425,0.000,0.000,35.395
1566,3.695,1.625,0.680,0.000,2.455,0.000,0.000,35.408
1584,3.697,1.625,0.688,0.000,2.485,0.000,0.000,35.398
1602,3.699,1.625,0.696,0.000,2.515,0.000,0.000,35.371
1620,3.701,1.625,0.704,0.000,2.545,0.000,0.000,35.384
1638,3.702,1.625,0.712,0.000,2.575,0.000,0.000,35.373
1656,3.704,1.625,0.721,0.000,2.605,0.000,0.000,35.409
1674,3.706,1.625,0.729,0.000,2.635,0.000,0.000,35.407
1692,3.708,1.625,0.737,0.000,2.665,0.000,0.000,35.415
1710,3.709,1.625,0.745,0.000,2.695,0.000,0.000,35.438
1728,3.711,1.625,0.753,0.000,2.726,0.000,0.000,35.465
1746,3.713,1.625,0.761,0.000,2.756,0.000,0.000,35.400
1764,3.714,1.625,0.769,0.000,2.786,0.000,0.000,35.418
1782,3.716,1.625,0.777,0.000,2.816,0.000,0.000,35.465
1800,3.718,1.625,0.786,0.000,2.846,0.000,0.000,35.463
1818,3.719,1.625,0.794,0.000,2.877,0.000,0.000,35.472
1836,3.721,1.625,0.802,0.000,2.907,0.000,0.000,35.512
1854,3.723,1.625,0.810,0.000,2.937,0.000,0.000,35.471
1872,3.724,1.625,0.818,0.000,2.967,0.000,0.000,35.465
1890,3.726,1.625,0.826,0.000,2.998,0.000,0.000,35.472
1908,3.727,1.625,0.834,0.000,3.028,0.000,0.000,35.517
1926,3.729,1.625,0.842,0.000,3.058,0.000,0.000,35.503
1944,3.730,1.625,0.851,0.000,3.088,0.000,0.000,35.496
1962,3.732,1.625,0.859,0.000,3.119,0.000,0.000,35.537
1980,3.733,1.625,0.867,0.000,3.149,0.000,0.000,35.521
1998,3.735,1.625,0.875,0.000,3.179,0.000,0.000,35.512
2016,3.737,1.625,0.883,0.000,3.210,0.000,0.000,35.478
2034,3.738,1.625,0.891,0.000,3.240,0.000,0.000,35.537
2052,3.739,1.625,0.899,0.000,3.271,0.000,0.000,35.521
2070,3.741,1.625,0.907,0.000,3.301,0.000,0.000,35.540
2088,3.742,1.625,0.916,0.000,3.331,0.000,0.000,35.538
2106,3.744,1.625,0.924,0.000,3.362,0.000,0.000,35.548
2124,3.745,1.625,0.932,0.000,3.392,0.000,0.000,35.544
2142,3.747,1.625,0.940,0.000,3.423,0.000,0.000,35.558
2160,3.748,1.625,0.948,0.000,3.453,0.000,0.000,35.554
2178,3.750,1.625,0.956,0.000,3.484,0.000,0.000,35.526
2196,3.751,1.625,0.964,0.000,3.514,0.000,0.000,35.546
2214,3.753,1.625,0.972,0.000,3.544,0.000,0.000,35.535
2232,3.754,1.625,0.981,0.000,3.575,0.000,0.000,35.565
2250,3.756,1.625,0.989,0.000,3.606,0.000,0.000,35.579
2268,3.757,1.625,0.997,0.000,3.636,0.000,0.000,35.646
2286,3.759,1.625,1.005,0.000,3.667,0.000,0.000,35.597
2304,3.761,1.625,1.013,0.000,3.697,0.000,0.000,35.588
2322,3.762,1.625,1.021,0.000,3.728,0.000,0.000,35.633
2340,3.764,1.625,1.029,0.000,3.758,0.000,0.000,35.584
2358,3.765,1.625,1.037,0.000,3.789,0.000,0.000,35.602
2376,3.767,1.625,1.046,0.000,3.819,0.000,0.000,35.575
2394,3.769,1.625,1.054,0.000,3.850,0.000,0.000,35.617
2412,3.770,1.625,1.062,0.000,3.881,0.000,0.000,35.618
2430,3.772,1.625,1.070,0.000,3.911,0.000,0.000,35.544
2448,3.773,1.625,1.078,0.000,3.942,0.000,0.000,35.594
2466,3.775,1.625,1.086,0.000,3.973,0.000,0.000,35.604
2484,3.777,1.625,1.094,0.000,4.003,0.000,0.000,35.626
2502,3.778,1.625,1.102,0.000,4.034,0.000,0.000,35.665
2520,3.780,1.625,1.111,0.000,4.065,0.000,0.000,35.667
2538,3.782,1.625,1.119,0.000,4.096,0.000,0.000,35.610
2556,3.784,1.625,1.127,0.000,4.126,0.000,0.000,35.633
2574,3.785,1.625,1.135,0.000,4.157,0.000,0.000,35.630
2592,3.787,1.625,1.143,0.000,4.188,0.000,0.000,35.627
2610,3.789,1.625,1.151,0.000,4.219,0.000,0.000,35.579
2628,3.790,1.625,1.159,0.000,4.249,0.000,0.000,35.654
2646,3.792,1.625,1.167,0.000,4.280,0.000,0.000,35.645
2664,3.794,1.625,1.176,0.000,4.311,0.000,0.000,35.610
2682,3.796,1.625,1.184,0.000,4.342,0.000,0.000,35.633
2700,3.798,1.625,1.192,0.000,4.373,0.000,0.000,35.620
2718,3.800,1.625,1.200,0.000,4.404,0.000,0.000,35.640
2736,3.801,1.625,1.208,0.000,4.434,0.000,0.000,35.627
2754,3.803,1.625,1.216,0.000,4.465,0.000,0.000,35.627
2772,3.805,1.625,1.224,0.000,4.496,0.000,0.000,35.630
2790,3.807,1.625,1.233,0.000,4.527,0.000,0.000,35.643
2808,3.809,1.625,1.241,0.000,4.558,0.000,0.000,35.618
2826,3.811,1.625,1.249,0.000,4.589,0.000,0.000,35.634
2844,3.813,1.625,1.257,0.000,4.620,0.000,0.000,35.630
2862,3.815,1.625,1.265,0.000,4.651,0.000,0.000,35.650
2880,3.817,1.625,1.273,0.000,4.682,0.000,0.000,35.617
2898,3.819,1.625,1.281,0.000,4.713,0.000,0.000,35.655
2916,3.821,1.625,1.289,0.000,4.744,0.000,0.000,35.672
2934,3.823,1.625,1.298,0.000,4.775,0.000,0.000,35.657
2952,3.825,1.625,1.306,0.000,4.806,0.000,0.000,35.656
2970,3.827,1.625,1.314,0.000,4.837,0.000,0.000,35.681
2988,3.829,1.625,1.322,0.000,4.868,0.000,0.000,35.667
3006,3.831,1.625,1.330,0.000,4.900,0.000,0.000,35.679
3024,3.833,1.625,1.338,0.000,4.931,0.000,0.000,35.668
3042,3.835,1.625,1.346,0.000,4.962,0.000,0.000,35.674
3060,3.837,1.625,1.354,0.000,4.993,0.000,0.000,35.680
3078,3.840,1.625,1.363,0.000,5.024,0.000,0.000,35.673
3096,3.842,1.625,1.371,0.000,5.055,0.000,0.000,35.657
3114,3.844,1.625,1.379,0.000,5.087,0.000,0.000,35.658
3132,3.846,1.625,1.387,0.000,5.118,0.000,0.000,35.684
3150,3.848,1.625,1.395,0.000,5.149,0.000,0.000,35.673
3168,3.850,1.625,1.403,0.000,5.180,0.000,0.000,35.673
3186,3.853,1.625,1.411,0.000,5.212,0.000,0.000,35.682
3204,3.855,1.625,1.419,0.000,5.243,0.000,0.000,35.679
3222,3.857,1.625,1.428,0.000,5.274,0.000,0.000,35.688
3240,3.860,1.625,1.436,0.000,5.306,0.000,0.000,35.672
3258,3.862,1.625,1.444,0.000,5.337,0.000,0.000,35.667
3276,3.864,1.625,1.452,0.000,5.369,0.000,0.000,35.696
3294,3.866,1.625,1.460,0.000,5.400,0.000,0.000,35.686
3312,3.869,1.625,1.468,0.000,5.431,0.000,0.000,35.693
3330,3.871,1.625,1.476,0.000,5.463,0.000,0.000,35.682
3348,3.873,1.625,1.484,0.000,5.494,0.000,0.000,35.743
3366,3.876,1.625,1.493,0.000,5.526,0.000,0.000,35.657
3384,3.878,1.625,1.501,0.000,5.557,0.000,0.000,35.736
3402,3.880,1.625,1.509,0.000,5.589,0.000,0.000,35.710
3420,3.883,1.625,1.517,0.000,5.620,0.000,0.000,35.687
3438,3.885,1.625,1.525,0.000,5.652,0.000,0.000,35.683
3456,3.887,1.625,1.533,0.000,5.684,0.000,0.000,35.693
3474,3.890,1.625,1.541,0.000,5.715,0.000,0.000,35.735
3492,3.892,1.625,1.549,0.000,5.747,0.000,0.000,35.671
3510,3.895,1.625,1.558,0.000,5.778,0.000,0.000,35.697
3528,3.897,1.625,1.566,0.000,5.810,0.000,0.000,35.692
3546,3.899,1.625,1.574,0.000,5.842,0.000,0.000,35.683
3564,3.902,1.625,1.582,0.000,5.873,0.000,0.000,35.699
3582,3.904,1.625,1.590,0.000,5.905,0.000,0.000,35.719
3600,3.907,1.625,1.598,0.000,5.937,0.000,0.000,35.700
3618,3.909,1.625,1.606,0.000,5.969,0.000,0.000,35.703
3636,3.911,1.625,1.614,0.000,6.000,0.000,0.000,35.674
3654,3.914,1.625,1.623,0.000,6.032,0.000,0.000,35.745
3672,3.916,1.625,1.631,0.000,6.064,0.000,0.000,35.677
3690,3.919,1.625,1.639,0.000,6.096,0.000,0.000,35.677
3708,3.921,1.625,1.647,0.000,6.128,0.000,0.000,35.700
3726,3.923,1.625,1.655,0.000,6.160,0.000,0.000,35.667
3744,3.926,1.625,1.663,0.000,6.191,0.000,0.000,35.670
3762,3.928,1.625,1.671,0.000,6.223,0.000,0.000,35.673
3780,3.931,1.625,1.679,0.000,6.255,0.000,0.000,35.664
3798,3.933,1.625,1.688,0.000,6.287,0.000,0.000,35.712
3816,3.936,1.625,1.696,0.000,6.319,0.000,0.000,35.719
3834,3.938,1.625,1.704,0.000,6.351,0.000,0.000,35.697
3852,3.940,1.625,1.712,0.000,6.383,0.000,0.000,35.724
3870,3.943,1.625,1.720,0.000,6.415,0.000,0.000,35.702
3888,3.945,1.625,1.728,0.000,6.447,0.000,0.000,35.741
3906,3.948,1.625,1.736,0.000,6.479,0.000,0.000,35.679
3924,3.950,1.625,1.744,0.000,6.511,0.000,0.000,35.693
3942,3.952,1.625,1.753,0.000,6.544,0.000,0.000,35.726
3960,3.955,1.625,1.761,0.000,6.576,0.000,0.000,35.671
3978,3.957,1.625,1.769,0.000,6.608,0.000,0.000,35.721
3996,3.960,1.625,1.777,0.000,6.640,0.000,0.000,35.674
4014,3.962,1.625,1.785,0.000,6.672,0.000,0.000,35.691
4032,3.964,1.625,1.793,0.000,6.704,0.000,0.000,35.662
4050,3.967,1.625,1.801,0.000,6.737,0.000,0.000,35.671
4068,3.969,1.625,1.809,0.000,6.769,0.000,0.000,35.692
4086,3.972,1.625,1.818,0.000,6.801,0.000,0.000,35.684
4104,3.974,1.625,1.826,0.000,6.833,0.000,0.000,35.675
4122,3.976,1.625,1.834,0.000,6.866,0.000,0.000,35.701
4140,3.979,1.625,1.842,0.000,6.898,0.000,0.000,35.678
4158,3.981,1.625,1.850,0.000,6.930,0.000,0.000,35.711
4176,3.983,1.625,1.858,0.000,6.963,0.000,0.000,35.681
4194,3.986,1.625,1.866,0.000,6.995,0.000,0.000,35.666
4212,3.988,1.625,1.874,0.000,7.028,0.000,0.000,35.659
4230,3.990,1.625,1.883,0.000,7.060,0.000,0.000,35.630
4248,3.993,1.625,1.891,0.000,7.092,0.000,0.000,35.683
4266,3.995,1.625,1.899,0.000,7.125,0.000,0.000,35.664
4284,3.998,1.625,1.907,0.000,7.157,0.000,0.000,35.680
4302,4.000,1.625,1.915,0.000,7.190,0.000,0.000,35.662
4320,4.002,1.625,1.923,0.000,7.222,0.000,0.000,35.667
4338,4.005,1.625,1.931,0.000,7.255,0.000,0.000,35.668
4356,4.007,1.625,1.939,0.000,7.287,0.000,0.000,35.682
4374,4.009,1.625,1.948,0.000,7.320,0.000,0.000,35.655
4392,4.012,1.625,1.956,0.000,7.353,0.000,0.000,35.637
4410,4.014,1.625,1.964,0.000,7.385,0.000,0.000,35.646
4428,4.016,1.625,1.972,0.000,7.418,0.000,0.000,35.668
4446,4.019,1.625,1.980,0.000,7.450,0.000,0.000,35.659
4464,4.021,1.625,1.988,0.000,7.483,0.000,0.000,35.690
4482,4.023,1.625,1.996,0.000,7.516,0.000,0.000,35.654
4500,4.026,1.625,2.005,0.000,7.549,0.000,0.000,35.698
4518,4.028,1.625,2.013,0.000,7.581,0.000,0.000,35.657
4536,4.030,1.625,2.021,0.000,7.614,0.000,0.000,35.635
4554,4.033,1.625,2.029,0.000,7.647,0.000,0.000,35.639
4572,4.035,1.625,2.037,0.000,7.680,0.000,0.000,35.627
4590,4.038,1.625,2.045,0.000,7.712,0.000,0.000,35.689
4608,4.040,1.625,2.053,0.000,7.745,0.000,0.000,35.625
4626,4.042,1.625,2.061,0.000,7.778,0.000,0.000,35.634
4644,4.045,1.625,2.070,0.000,7.811,0.000,0.000,35.641
4662,4.047,1.625,2.078,0.000,7.844,0.000,0.000,35.662
4680,4.050,1.625,2.086,0.000,7.877,0.000,0.000,35.654
4698,4.052,1.625,2.094,0.000,7.910,0.000,0.000,35.623
4716,4.055,1.625,2.102,0.000,7.943,0.000,0.000,35.631
4734,4.057,1.625,2.110,0.000,7.975,0.000,0.000,35.677
4752,4.060,1.625,2.118,0.000,8.008,0.000,0.000,35.651
4770,4.062,1.625,2.126,0.000,8.041,0.000,0.000,35.655
4788,4.065,1.625,2.135,0.000,8.074,0.000,0.000,35.683
4806,4.068,1.625,2.143,0.000,8.108,0.000,0.000,35.627
4824,4.070,1.625,2.151,0.000,8.141,0.000,0.000,35.658
4842,4.073,1.625,2.159,0.000,8.174,0.000,0.000,35.639
4860,4.075,1.625,2.167,0.000,8.207,0.000,0.000,35.664
4878,4.078,1.625,2.175,0.000,8.240,0.000,0.000,35.620
4896,4.081,1.625,2.183,0.000,8.273,0.000,0.000,35.656
4914,4.083,1.625,2.191,0.000,8.306,0.000,0.000,35.666
4932,4.086,1.625,2.200,0.000,8.339,0.000,0.000,35.690
4950,4.089,1.625,2.208,0.000,8.373,0.000,0.000,35.655
4968,4.092,1.625,2.216,0.000,8.406,0.000,0.000,35.711
4986,4.095,1.625,2.224,0.000,8.439,0.000,0.000,35.711
5004,4.098,1.625,2.232,0.000,8.472,0.000,0.000,35.676
5022,4.101,1.625,2.240,0.000,8.506,0.000,0.000,35.675
5040,4.103,1.625,2.248,0.000,8.539,0.000,0.000,35.729
5058,4.106,1.625,2.256,0.000,8.572,0.000,0.000,35.696
5076,4.109,1.625,2.265,0.000,8.606,0.000,0.000,35.640
5094,4.112,1.625,2.273,0.000,8.639,0.000,0.000,35.702
5112,4.115,1.625,2.281,0.000,8.673,0.000,0.000,35.688
5130,4.118,1.625,2.289,0.000,8.706,0.000,0.000,35.703
5148,4.121,1.625,2.297,0.000,8.740,0.000,0.000,35.719
5166,4.125,1.625,2.305,0.000,8.773,0.000,0.000,35.690
5184,4.128,1.625,2.313,0.000,8.807,0.000,0.000,35.685
5202,4.131,1.625,2.321,0.000,8.840,0.000,0.000,35.712
5220,4.134,1.625,2.330,0.000,8.874,0.000,0.000,35.656
5238,4.137,1.625,2.338,0.000,8.907,0.000,0.000,35.707
5256,4.140,1.625,2.346,0.000,8.941,0.000,0.000,35.731
5274,4.144,1.625,2.354,0.000,8.975,0.000,0.000,35.737
5292,4.147,1.625,2.362,0.000,9.008,0.000,0.000,35.707
5310,4.150,1.625,2.370,0.000,9.042,0.000,0.000,35.714
5328,4.154,1.625,2.378,0.000,9.076,0.000,0.000,35.716
5346,4.157,1.625,2.386,0.000,9.110,0.000,0.000,35.703
5364,4.160,1.625,2.395,0.000,9.143,0.000,0.000,35.714
5382,4.164,1.625,2.403,0.000,9.177,0.000,0.000,35.744
5400,4.167,1.625,2.411,0.000,9.211,0.000,0.000,35.735
5418,4.170,1.625,2.419,0.000,9.245,0.000,0.000,35.714
5436,4.174,1.625,2.427,0.000,9.279,0.000,0.000,35.742
5454,4.177,1.625,2.435,0.000,9.313,0.000,0.000,35.763
5472,4.180,1.625,2.443,0.000,9.347,0.000,0.000,35.778
5490,4.184,1.625,2.451,0.000,9.381,0.000,0.000,35.753
5508,4.187,1.625,2.460,0.000,9.415,0.000,0.000,35.772
5526,4.190,1.625,2.468,0.000,9.449,0.000,0.000,35.803
5544,4.194,1.625,2.476,0.000,9.483,0.000,0.000,35.779
5562,4.197,1.625,2.484,0.000,9.517,0.000,0.000,35.736
5580,4.200,1.615,2.492,0.000,9.551,0.000,0.000,35.796
5598,4.200,1.561,2.500,0.000,9.584,0.000,0.000,35.772
5616,4.200,1.519,2.508,0.000,9.617,0.000,0.000,35.782
5634,4.200,1.483,2.515,0.000,9.648,0.000,0.000,35.716
5652,4.200,1.450,2.523,0.000,9.679,0.000,0.000,35.776
5670,4.200,1.419,2.530,0.000,9.709,0.000,0.000,35.793
5688,4.200,1.389,2.537,0.000,9.739,0.000,0.000,35.775
5706,4.200,1.363,2.544,0.000,9.768,0.000,0.000,35.772
5724,4.200,1.337,2.550,0.000,9.796,0.000,0.000,35.713
5742,4.200,1.310,2.557,0.000,9.824,0.000,0.000,35.726
5760,4.200,1.287,2.563,0.000,9.851,0.000,0.000,35.730
5778,4.200,1.263,2.570,0.000,9.878,0.000,0.000,35.696
5796,4.200,1.241,2.576,0.000,9.904,0.000,0.000,35.697
5814,4.200,1.218,2.582,0.000,9.930,0.000,0.000,35.678
5832,4.200,1.198,2.588,0.000,9.955,0.000,0.000,35.649
5850,4.200,1.176,2.594,0.000,9.980,0.000,0.000,35.645
5868,4.200,1.156,2.600,0.000,10.005,0.000,0.000,35.597
5886,4.200,1.137,2.606,0.000,10.029,0.000,0.000,35.637
5904,4.200,1.118,2.611,0.000,10.052,0.000,0.000,35.597
5922,4.200,1.100,2.617,0.000,10.076,0.000,0.000,35.574
5940,4.200,1.082,2.622,0.000,10.098,0.000,0.000,35.541
5958,4.200,1.064,2.628,0.000,10.121,0.000,0.000,35.507
5976,4.200,1.047,2.633,0.000,10.143,0.000,0.000,35.490
5994,4.200,1.030,2.638,0.000,10.165,0.000,0.000,35.506
6012,4.200,1.014,2.643,0.000,10.186,0.000,0.000,35.491
6030,4.200,0.998,2.648,0.000,10.208,0.000,0.000,35.444
6048,4.200,0.984,2.653,0.000,10.228,0.000,0.000,35.426
6066,4.200,0.968,2.658,0.000,10.249,0.000,0.000,35.409
6084,4.200,0.954,2.663,0.000,10.269,0.000,0.000,35.381
6102,4.200,0.939,2.668,0.000,10.289,0.000,0.000,35.416
6120,4.200,0.927,2.672,0.000,10.309,0.000,0.000,35.411
6138,4.200,0.912,2.677,0.000,10.328,0.000,0.000,35.339
6156,4.200,0.898,2.682,0.000,10.347,0.000,0.000,35.381
6174,4.200,0.885,2.686,0.000,10.366,0.000,0.000,35.369
6192,4.200,0.873,2.690,0.000,10.384,0.000,0.000,35.338
6210,4.200,0.860,2.695,0.000,10.402,0.000,0.000,35.339
6228,4.200,0.847,2.699,0.000,10.420,0.000,0.000,35.304
6246,4.200,0.834,2.703,0.000,10.438,0.000,0.000,35.296
6264,4.200,0.822,2.707,0.000,10.455,0.000,0.000,35.276
6282,4.200,0.810,2.711,0.000,10.472,0.000,0.000,35.226
6300,4.200,0.799,2.715,0.000,10.489,0.000,0.000,35.241
6318,4.200,0.787,2.719,0.000,10.506,0.000,0.000,35.199
6336,4.200,0.775,2.723,0.000,10.522,0.000,0.000,35.204
6354,4.200,0.764,2.727,0.000,10.538,0.000,0.000,35.157
6372,4.200,0.753,2.731,0.000,10.554,0.000,0.000,35.185
6390,4.200,0.742,2.735,0.000,10.570,0.000,0.000,35.175
6408,4.200,0.730,2.738,0.000,10.585,0.000,0.000,35.141
6426,4.200,0.720,2.742,0.000,10.601,0.000,0.000,35.123
6444,4.200,0.709,2.746,0.000,10.616,0.000,0.000,35.137
6462,4.200,0.699,2.749,0.000,10.630,0.000,0.000,35.103
6480,4.200,0.688,2.753,0.000,10.645,0.000,0.000,35.091
6498,4.200,0.678,2.756,0.000,10.659,0.000,0.000,35.097
6516,4.200,0.668,2.759,0.000,10.673,0.000,0.000,35.094
6534,4.200,0.658,2.763,0.000,10.687,0.000,0.000,35.036
6552,4.200,0.648,2.766,0.000,10.701,0.000,0.000,35.028
6570,4.200,0.638,2.769,0.000,10.715,0.000,0.000,35.039
6588,4.200,0.628,2.772,0.000,10.728,0.000,0.000,34.998
6606,4.200,0.618,2.775,0.000,10.741,0.000,0.000,34.987
6624,4.200,0.608,2.778,0.000,10.754,0.000,0.000,34.976
6642,4.200,0.600,2.781,0.000,10.767,0.000,0.000,34.974
6660,4.200,0.589,2.784,0.000,10.779,0.000,0.000,34.943
6678,4.200,0.580,2.787,0.000,10.791,0.000,0.000,34.966
6696,4.200,0.570,2.790,0.000,10.803,0.000,0.000,34.974
6714,4.200,0.562,2.793,0.000,10.815,0.000,0.000,34.967
6732,4.200,0.553,2.796,0.000,10.827,0.000,0.000,34.932
6750,4.200,0.544,2.799,0.000,10.839,0.000,0.000,34.938
6768,4.200,0.535,2.801,0.000,10.850,0.000,0.000,34.935
6786,4.200,0.527,2.804,0.000,10.861,0.000,0.000,34.877
6804,4.200,0.518,2.807,0.000,10.872,0.000,0.000,34.896
6822,4.200,0.509,2.809,0.000,10.883,0.000,0.000,34.919
6840,4.200,0.501,2.812,0.000,10.893,0.000,0.000,34.867
6858,4.200,0.493,2.814,0.000,10.904,0.000,0.000,34.865
6876,4.200,0.485,2.817,0.000,10.914,0.000,0.000,34.893
6894,4.200,0.477,2.819,0.000,10.924,0.000,0.000,34.877
6912,4.200,0.469,2.821,0.000,10.934,0.000,0.000,34.861
6930,4.200,0.461,2.824,0.000,10.944,0.000,0.000,34.852
6948,4.200,0.454,2.826,0.000,10.953,0.000,0.000,34.840
6966,4.200,0.445,2.828,0.000,10.963,0.000,0.000,34.813
6984,4.200,0.438,2.830,0.000,10.972,0.000,0.000,34.803
7002,4.200,0.430,2.833,0.000,10.981,0.000,0.000,34.831
7020,4.200,0.423,2.835,0.000,10.990,0.000,0.000,34.801
7038,4.200,0.415,2.837,0.000,10.999,0.000,0.000,34.825
7056,4.200,0.409,2.839,0.000,11.008,0.000,0.000,34.802
7074,4.200,0.401,2.841,0.000,11.016,0.000,0.000,34.789
7092,4.200,0.394,2.843,0.000,11.025,0.000,0.000,34.847
7110,4.200,0.387,2.845,0.000,11.033,0.000,0.000,34.808
7128,4.200,0.380,2.847,0.000,11.041,0.000,0.000,34.772
7146,4.200,0.373,2.849,0.000,11.049,0.000,0.000,34.796
7164,4.200,0.366,2.851,0.000,11.056,0.000,0.000,34.793
7182,4.200,0.361,2.852,0.000,11.064,0.000,0.000,34.750
7200,4.200,0.354,2.854,0.000,11.072,0.000,0.000,34.762
7218,4.200,0.347,2.856,0.000,11.079,0.000,0.000,34.760
7236,4.200,0.342,2.858,0.000,11.086,0.000,0.000,34.753
7254,4.200,0.334,2.859,0.000,11.093,0.000,0.000,34.741
7272,4.200,0.328,2.861,0.000,11.100,0.000,0.000,34.726
7290,4.200,0.322,2.863,0.000,11.107,0.000,0.000,34.690
7308,4.200,0.316,2.864,0.000,11.114,0.000,0.000,34.714
7326,4.200,0.311,2.866,0.000,11.120,0.000,0.000,34.698
7344,4.200,0.306,2.867,0.000,11.127,0.000,0.000,34.707
7362,4.200,0.300,2.869,0.000,11.133,0.000,0.000,34.718
7380,4.200,0.294,2.870,0.000,11.139,0.000,0.000,34.721
7398,4.200,0.289,2.872,0.000,11.146,0.000,0.000,34.703
7416,4.200,0.284,2.873,0.000,11.152,0.000,0.000,34.662
7434,4.200,0.278,2.875,0.000,11.157,0.000,0.000,34.694
7452,4.200,0.273,2.876,0.000,11.163,0.000,0.000,34.719
7470,4.200,0.268,2.877,0.000,11.169,0.000,0.000,34.674
7488,4.200,0.262,2.879,0.000,11.175,0.000,0.000,34.665
7506,4.200,0.258,2.880,0.000,11.180,0.000,0.000,34.652
7524,4.200,0.254,2.881,0.000,11.185,0.000,0.000,34.689
7542,4.200,0.248,2.882,0.000,11.191,0.000,0.000,34.691
7560,4.200,0.244,2.884,0.000,11.196,0.000,0.000,34.663
7578,4.200,0.239,2.885,0.000,11.201,0.000,0.000,34.667
7596,4.200,0.235,2.886,0.000,11.206,0.000,0.000,34.628
7614,4.200,0.231,2.887,0.000,11.211,0.000,0.000,34.645
7632,4.200,0.226,2.888,0.000,11.216,0.000,0.000,34.640
7650,4.200,0.222,2.890,0.000,11.220,0.000,0.000,34.657
7668,4.200,0.217,2.891,0.000,11.225,0.000,0.000,34.649
7686,4.200,0.213,2.892,0.000,11.229,0.000,0.000,34.627
7704,4.200,0.209,2.893,0.000,11.234,0.000,0.000,34.620
7722,4.200,0.206,2.894,0.000,11.238,0.000,0.000,34.594
7740,4.200,0.202,2.895,0.000,11.242,0.000,0.000,34.610
7758,4.200,0.197,2.896,0.000,11.247,0.000,0.000,34.615
7776,4.200,0.195,2.897,0.000,11.251,0.000,0.000,34.611
7794,4.200,0.191,2.898,0.000,11.255,0.000,0.000,34.605
7812,4.200,0.187,2.899,0.000,11.259,0.000,0.000,34.624
7830,4.200,0.183,2.900,0.000,11.263,0.000,0.000,34.631
7848,4.200,0.180,2.901,0.000,11.266,0.000,0.000,34.582
7866,4.200,0.176,2.901,0.000,11.270,0.000,0.000,34.589
7884,4.200,0.173,2.902,0.000,11.274,0.000,0.000,34.626
7902,4.200,0.170,2.903,0.000,11.277,0.000,0.000,34.584
7920,4.200,0.166,2.904,0.000,11.281,0.000,0.000,34.581
7938,4.200,0.164,2.905,0.000,11.284,0.000,0.000,34.572
7956,4.200,0.161,2.906,0.000,11.288,0.000,0.000,34.555
7974,4.200,0.158,2.906,0.000,11.291,0.000,0.000,34.610
7992,4.200,0.155,2.907,0.000,11.294,0.000,0.000,34.554
8010,4.200,0.152,2.908,0.000,11.298,0.000,0.000,34.556
8028,4.200,0.149,2.909,0.000,11.301,0.000,0.000,34.577
8046,4.200,0.146,2.909,0.000,11.304,0.000,0.000,34.568
8064,4.200,0.144,2.910,0.000,11.307,0.000,0.000,34.611
8082,4.200,0.142,2.911,0.000,11.310,0.000,0.000,34.565
8100,4.200,0.138,2.912,0.000,11.313,0.000,0.000,34.593
8118,4.200,0.136,2.912,0.000,11.316,0.000,0.000,34.561
8136,4.200,0.133,2.913,0.000,11.319,0.000,0.000,34.525
8154,4.200,0.130,2.914,0.000,11.321,0.000,0.000,34.531
8172,4.200,0.129,2.914,0.000,11.324,0.000,0.000,34.586
8190,4.200,0.126,2.915,0.000,11.327,0.000,0.000,34.544
8208,4.200,0.124,2.916,0.000,11.329,0.000,0.000,34.571
8226,4.200,0.121,2.916,0.000,11.332,0.000,0.000,34.523
8244,4.200,0.120,2.917,0.000,11.335,0.000,0.000,34.497
8262,4.200,0.117,2.917,0.000,11.337,0.000,0.000,34.562
8280,4.200,0.115,2.918,0.000,11.339,0.000,0.000,34.562
8298,4.200,0.113,2.918,0.000,11.342,0.000,0.000,34.522
8316,4.200,0.111,2.919,0.000,11.344,0.000,0.000,34.570
8334,4.200,0.109,2.920,0.000,11.346,0.000,0.000,34.543
8352,4.200,0.107,2.920,0.000,11.349,0.000,0.000,34.579
8370,4.200,0.105,2.921,0.000,11.351,0.000,0.000,34.532
8388,4.200,0.103,2.921,0.000,11.353,0.000,0.000,34.537
8406,4.200,0.102,2.922,0.000,11.355,0.000,0.000,34.494
8424,4.200,0.100,2.922,0.000,11.357,0.000,0.000,34.544
8442,4.200,0.098,2.923,0.000,11.360,0.000,0.000,34.521
8460,4.200,0.097,2.923,0.000,11.362,0.000,0.000,34.566
8478,4.200,0.095,2.924,0.000,11.364,0.000,0.000,34.540
8496,4.200,0.093,2.924,0.000,11.366,0.000,0.000,34.550
8514,4.200,0.091,2.925,0.000,11.367,0.000,0.000,34.550
8532,4.200,0.089,2.925,0.000,11.369,0.000,0.000,34.575
8550,4.200,0.088,2.925,0.000,11.371,0.000,0.000,34.457
8568,4.200,0.087,2.926,0.000,11.373,0.000,0.000,34.531
8586,4.200,0.086,2.926,0.000,11.375,0.000,0.000,34.499
8604,4.200,0.084,2.927,0.000,11.377,0.000,0.000,34.498
8622,4.200,0.083,2.927,0.000,11.378,0.000,0.000,34.540
8640,4.200,0.081,2.928,0.000,11.380,0.000,0.000,34.543
8658,4.200,0.079,2.928,0.000,11.382,0.000,0.000,34.539
8676,4.200,0.078,2.928,0.000,11.383,0.000,0.000,34.455
8694,4.200,0.076,2.929,0.000,11.385,0.000,0.000,34.530
8712,4.200,0.075,2.929,0.000,11.387,0.000,0.000,34.525
8730,4.200,0.074,2.930,0.000,11.388,0.000,0.000,34.525
8748,4.200,0.073,2.930,0.000,11.390,0.000,0.000,34.535
8766,4.200,0.072,2.930,0.000,11.391,0.000,0.000,34.474
8784,4.200,0.071,2.931,0.000,11.393,0.000,0.000,34.493
8802,4.200,0.070,2.931,0.000,11.394,0.000,0.000,34.491
8820,4.200,0.069,2.931,0.000,11.396,0.000,0.000,34.489
8838,4.200,0.067,2.932,0.000,11.397,0.000,0.000,34.489
8856,4.200,0.067,2.932,0.000,11.399,0.000,0.000,34.468
8874,4.196,0.000,2.932,0.000,11.400,0.000,-0.004,34.508
8892,4.195,0.000,2.932,0.000,11.400,0.000,0.000,34.499
8910,4.195,0.000,2.932,0.000,11.400,0.000,0.000,34.510
8928,4.195,0.000,2.932,0.000,11.400,0.000,0.000,34.512
8946,4.194,0.000,2.932,0.000,11.400,0.000,0.000,34.470
8964,4.194,0.000,2.932,0.000,11.400,0.000,0.000,34.474
8982,4.193,0.000,2.932,0.000,11.400,0.000,0.000,34.482
9000,4.193,0.000,2.932,0.000,11.400,0.000,0.000,34.488
9018,4.193,0.000,2.932,0.000,11.400,0.000,0.000,34.498
9036,4.193,0.000,2.932,0.000,11.400,0.000,0.000,34.491
9054,4.192,0.000,2.932,0.000,11.400,0.000,0.000,34.522
9072,4.192,0.000,2.932,0.000,11.400,0.000,0.000,34.543
9090,4.192,0.000,2.932,0.000,11.400,0.000,0.000,34.456
9108,4.192,0.000,2.932,0.000,11.400,0.000,0.000,34.520
9126,4.192,0.000,2.932,0.000,11.400,0.000,0.000,34.514
9144,4.192,0.000,2.932,0.000,11.400,0.000,0.000,34.493
9162,4.191,0.000,2.932,0.000,11.400,0.000,0.000,34.465
9180,4.191,0.000,2.932,0.000,11.400,0.000,0.000,34.475
9198,4.191,0.000,2.932,0.000,11.400,0.000,0.000,34.459
9216,4.191,0.000,2.932,0.000,11.400,0.000,0.000,34.516
9234,4.191,0.000,2.932,0.000,11.400,0.000,0.000,34.466
9252,4.191,0.000,2.932,0.000,11.400,0.000,0.000,34.468
9270,4.190,0.000,2.932,0.000,11.400,0.000,0.000,34.462
9288,4.190,0.000,2.932,0.000,11.400,0.000,0.000,34.503
9306,4.190,0.000,2.932,0.000,11.400,0.000,0.000,34.451
9324,4.190,0.000,2.932,0.000,11.400,0.000,0.000,34.486
9342,4.190,0.000,2.932,0.000,11.400,0.000,0.000,34.457
9360,4.190,0.000,2.932,0.000,11.400,0.000,0.000,34.481
9378,4.190,0.000,2.932,0.000,11.400,0.000,0.000,34.457
9396,4.190,0.000,2.932,0.000,11.400,0.000,0.000,34.435
9414,4.190,0.000,2.932,0.000,11.400,0.000,0.000,34.492
9432,4.189,0.000,2.932,0.000,11.400,0.000,0.000,34.447
9450,4.189,0.000,2.932,0.000,11.400,0.000,0.000,34.472
9468,4.189,0.000,2.932,0.000,11.400,0.000,0.000,34.461
9486,4.189,0.000,2.932,0.000,11.400,0.000,0.000,34.500
9504,4.189,0.000,2.932,0.000,11.400,0.000,0.000,34.489
9522,4.189,0.000,2.932,0.000,11.400,0.000,0.000,34.444
9540,4.189,0.000,2.932,0.000,11.400,0.000,0.000,34.529
9558,4.189,0.000,2.932,0.000,11.400,0.000,0.000,34.502
9576,4.188,0.000,2.932,0.000,11.400,0.000,0.000,34.464
9594,4.188,0.000,2.932,0.000,11.400,0.000,0.000,34.467
9612,4.188,0.000,2.932,0.000,11.400,0.000,0.000,34.447
9630,4.188,0.000,2.932,0.000,11.400,0.000,0.000,34.501
9648,4.188,0.000,2.932,0.000,11.400,0.000,0.000,34.466
9666,4.188,0.000,2.932,0.000,11.400,0.000,0.000,34.472
9684,4.188,0.000,2.932,0.000,11.400,0.000,0.000,34.518
9702,4.188,0.000,2.932,0.000,11.400,0.000,0.000,34.418
9720,4.188,0.000,2.932,0.000,11.400,0.000,0.000,34.482
9738,4.188,0.000,2.932,0.000,11.400,0.000,0.000,34.453
9756,4.188,0.000,2.932,0.000,11.400,0.000,0.000,34.473
9774,4.188,0.000,2.932,0.000,11.400,0.000,0.000,34.476
9792,4.188,0.000,2.932,0.000,11.400,0.000,0.000,34.490
9810,4.188,0.000,2.932,0.000,11.400,0.000,0.000,34.433
9828,4.188,0.000,2.932,0.000,11.400,0.000,0.000,34.453
9846,4.187,0.000,2.932,0.000,11.400,0.000,0.000,34.478
9864,4.187,0.000,2.932,0.000,11.400,0.000,0.000,34.450
9882,4.187,0.000,2.932,0.000,11.400,0.000,0.000,34.442
9900,4.187,0.000,2.932,0.000,11.400,0.000,0.000,34.481
9918,4.187,0.000,2.932,0.000,11.400,0.000,0.000,34.487
9936,4.187,0.000,2.932,0.000,11.400,0.000,0.000,34.466
9954,4.187,0.000,2.932,0.000,11.400,0.000,0.000,34.499
9972,4.187,0.000,2.932,0.000,11.400,0.000,0.000,34.477
9990,4.187,0.000,2.932,0.000,11.400,0.000,0.000,34.454
10008,4.187,0.000,2.932,0.000,11.400,0.000,0.000,34.465
10026,4.187,0.000,2.932,0.000,11.400,0.000,0.000,34.495
10044,4.187,0.000,2.932,0.000,11.400,0.000,0.000,34.470
10062,4.187,0.000,2.932,0.000,11.400,0.000,0.000,34.505
10080,4.187,0.000,2.932,0.000,11.400,0.000,0.000,34.478
10098,4.187,0.000,2.932,0.000,11.400,0.000,0.000,34.461
10116,4.186,0.000,2.932,0.000,11.400,0.000,0.000,34.425
10134,4.186,0.000,2.932,0.000,11.400,0.000,0.000,34.431
10152,4.186,0.000,2.932,0.000,11.400,0.000,0.000,34.497
10170,4.186,0.000,2.932,0.000,11.400,0.000,0.000,34.473
10188,4.186,0.000,2.932,0.000,11.400,0.000,0.000,34.479
10206,4.186,0.000,2.932,0.000,11.400,0.000,0.000,34.460
10224,4.186,0.000,2.932,0.000,11.400,0.000,0.000,34.470
10242,4.186,0.000,2.932,0.000,11.400,0.000,0.000,34.481
10260,4.186,0.000,2.932,0.000,11.400,0.000,0.000,34.494
10278,4.186,0.000,2.932,0.000,11.400,0.000,0.000,34.496
10296,4.186,0.000,2.932,0.000,11.400,0.000,0.000,34.433
10314,4.186,0.000,2.932,0.000,11.400,0.000,0.000,34.470
10332,4.186,0.000,2.932,0.000,11.400,0.000,0.000,34.461
10350,4.186,0.000,2.932,0.000,11.400,0.000,0.000,34.464
10368,4.186,0.000,2.932,0.000,11.400,0.000,0.000,34.481
10386,4.186,0.000,2.932,0.000,11.400,0.000,0.000,34.412
10404,4.186,0.000,2.932,0.000,11.400,0.000,0.000,34.434
10422,4.186,0.000,2.932,0.000,11.400,0.000,0.000,34.469
10440,4.186,0.000,2.932,0.000,11.400,0.000,0.000,34.412
10458,4.186,0.000,2.932,0.000,11.400,0.000,0.000,34.436
10476,4.186,0.000,2.932,0.000,11.400,0.000,0.000,34.430
10494,4.186,0.000,2.932,0.000,11.400,0.000,0.000,34.463
10512,4.185,0.000,2.932,0.000,11.400,0.000,0.000,34.494
10530,4.185,0.000,2.932,0.000,11.400,0.000,0.000,34.402
10548,4.185,0.000,2.932,0.000,11.400,0.000,0.000,34.483
10566,4.185,0.000,2.932,0.000,11.400,0.000,0.000,34.444
10584,4.185,0.000,2.932,0.000,11.400,0.000,0.000,34.486
10602,4.185,0.000,2.932,0.000,11.400,0.000,0.000,34.440
10620,4.185,0.000,2.932,0.000,11.400,0.000,0.000,34.472
10638,4.185,0.000,2.932,0.000,11.400,0.000,0.000,34.483
10656,4.185,0.000,2.932,0.000,11.400,0.000,0.000,34.465
10674,4.185,0.000,2.932,0.000,11.400,0.000,0.000,34.430
10692,4.185,0.000,2.932,0.000,11.400,0.000,0.000,34.458
10710,4.185,0.000,2.932,0.000,11.400,0.000,0.000,34.425
10728,4.185,0.000,2.932,0.000,11.400,0.000,0.000,34.489
10746,4.185,0.000,2.932,0.000,11.400,0.000,0.000,34.504
10764,4.185,0.000,2.932,0.000,11.400,0.000,0.000,34.457
10782,4.185,0.000,2.932,0.000,11.400,0.000,0.000,34.474
10800,4.185,0.000,2.932,0.000,11.400,0.000,0.000,34.466
10818,4.185,0.000,2.932,0.000,11.400,0.000,0.000,34.494
10836,4.185,0.000,2.932,0.000,11.400,0.000,0.000,34.462
10854,4.185,0.000,2.932,0.000,11.400,0.000,0.000,34.473
10872,4.185,0.000,2.932,0.000,11.400,0.000,0.000,34.497
10890,4.185,0.000,2.932,0.000,11.400,0.000,0.000,34.479
10908,4.185,0.000,2.932,0.000,11.400,0.000,0.000,34.457
10926,4.185,0.000,2.932,0.000,11.400,0.000,0.000,34.511
10944,4.184,0.000,2.932,0.000,11.400,0.000,0.000,34.430
10962,4.185,0.000,2.932,0.000,11.400,0.000,0.000,34.455
10980,4.185,0.000,2.932,0.000,11.400,0.000,0.000,34.483
10998,4.184,0.000,2.932,0.000,11.400,0.000,0.000,34.510
11016,4.184,0.000,2.932,0.000,11.400,0.000,0.000,34.486
11034,4.184,0.000,2.932,0.000,11.400,0.000,0.000,34.474
11052,4.184,0.000,2.932,0.000,11.400,0.000,0.000,34.473
11070,4.184,0.000,2.932,0.000,11.400,0.000,0.000,34.513
11088,4.184,0.000,2.932,0.000,11.400,0.000,0.000,34.452
11106,4.184,0.000,2.932,0.000,11.400,0.000,0.000,34.436
11124,4.184,0.000,2.932,0.000,11.400,0.000,0.000,34.517
11142,4.184,0.000,2.932,0.000,11.400,0.000,0.000,34.417
11160,4.184,0.000,2.932,0.000,11.400,0.000,0.000,34.494
11178,4.184,0.000,2.932,0.000,11.400,0.000,0.000,34.453
11196,4.184,0.000,2.932,0.000,11.400,0.000,0.000,34.457
11214,4.184,0.000,2.932,0.000,11.400,0.000,0.000,34.451
11232,4.184,0.000,2.932,0.000,11.400,0.000,0.000,34.445
11250,4.184,0.000,2.932,0.000,11.400,0.000,0.000,34.458
11268,4.184,0.000,2.932,0.000,11.400,0.000,0.000,34.470
11286,4.184,0.000,2.932,0.000,11.400,0.000,0.000,34.476
11304,4.184,0.000,2.932,0.000,11.400,0.000,0.000,34.393
11322,4.184,0.000,2.932,0.000,11.400,0.000,0.000,34.432
11340,4.184,0.000,2.932,0.000,11.400,0.000,0.000,34.448
11358,4.184,0.000,2.932,0.000,11.400,0.000,0.000,34.467
11376,4.184,0.000,2.932,0.000,11.400,0.000,0.000,34.443
11394,4.184,0.000,2.932,0.000,11.400,0.000,0.000,34.510
11412,4.184,0.000,2.932,0.000,11.400,0.000,0.000,34.471
11430,4.184,0.000,2.932,0.000,11.400,0.000,0.000,34.440
11448,4.184,0.000,2.932,0.000,11.400,0.000,0.000,34.436
11466,4.184,0.000,2.932,0.000,11.400,0.000,0.000,34.500
11484,4.184,0.000,2.932,0.000,11.400,0.000,0.000,34.447
11502,4.184,0.000,2.932,0.000,11.400,0.000,0.000,34.448
11520,4.184,0.000,2.932,0.000,11.400,0.000,0.000,34.458
11538,4.183,0.000,2.932,0.000,11.400,0.000,0.000,34.468
11556,4.183,0.000,2.932,0.000,11.400,0.000,0.000,34.454
11574,4.183,0.000,2.932,0.000,11.400,0.000,0.000,34.519
11592,4.183,0.000,2.932,0.000,11.400,0.000,0.000,34.489
11610,4.183,0.000,2.932,0.000,11.400,0.000,0.000,34.446
11628,4.183,0.000,2.932,0.000,11.400,0.000,0.000,34.463
11646,4.183,0.000,2.932,0.000,11.400,0.000,0.000,34.432
11664,4.183,0.000,2.932,0.000,11.400,0.000,0.000,34.430
11682,4.183,0.000,2.932,0.000,11.400,0.000,0.000,34.454
11700,4.183,0.000,2.932,0.000,11.400,0.000,0.000,34.479
11718,4.183,0.000,2.932,0.000,11.400,0.000,0.000,34.442
11736,4.183,0.000,2.932,0.000,11.400,0.000,0.000,34.458
11754,4.183,0.000,2.932,0.000,11.400,0.000,0.000,34.454
11772,4.183,0.000,2.932,0.000,11.400,0.000,0.000,34.470
11790,4.183,0.000,2.932,0.000,11.400,0.000,0.000,34.485
11808,4.183,0.000,2.932,0.000,11.400,0.000,0.000,34.437
11826,4.183,0.000,2.932,0.000,11.400,0.000,0.000,34.460
11844,4.183,0.000,2.932,0.000,11.400,0.000,0.000,34.436
11862,4.183,0.000,2.932,0.000,11.400,0.000,0.000,34.463
11880,4.183,0.000,2.932,0.000,11.400,0.000,0.000,34.442
11898,4.183,0.000,2.932,0.000,11.400,0.000,0.000,34.461
11916,4.183,0.000,2.932,0.000,11.400,0.000,0.000,34.444
11934,4.183,0.000,2.932,0.000,11.400,0.000,0.000,34.441
11952,4.183,0.000,2.932,0.000,11.400,0.000,0.000,34.423
11970,4.183,0.000,2.932,0.000,11.400,0.000,0.000,34.427
11988,4.183,0.000,2.932,0.000,11.400,0.000,0.000,34.450
12006,4.183,0.000,2.932,0.000,11.400,0.000,0.000,34.474
12024,4.183,0.000,2.932,0.000,11.400,0.000,0.000,34.475
12042,4.183,0.000,2.932,0.000,11.400,0.000,0.000,34.419
12060,4.183,0.000,2.932,0.000,11.400,0.000,0.000,34.433
12078,4.183,0.000,2.932,0.000,11.400,0.000,0.000,34.426
12096,4.183,0.000,2.932,0.000,11.400,0.000,0.000,34.483
12114,4.183,0.000,2.932,0.000,11.400,0.000,0.000,34.474
12132,4.183,0.000,2.932,0.000,11.400,0.000,0.000,34.428
12150,4.183,0.000,2.932,0.000,11.400,0.000,0.000,34.495
12168,4.183,0.000,2.932,0.000,11.400,0.000,0.000,34.409
12186,4.183,0.000,2.932,0.000,11.400,0.000,0.000,34.512
12204,4.183,0.000,2.932,0.000,11.400,0.000,0.000,34.440
12222,4.183,0.000,2.932,0.000,11.400,0.000,0.000,34.445
12240,4.183,0.000,2.932,0.000,11.400,0.000,0.000,34.449
12258,4.183,0.000,2.932,0.000,11.400,0.000,0.000,34.461
12276,4.183,0.000,2.932,0.000,11.400,0.000,0.000,34.480
12294,4.182,0.000,2.932,0.000,11.400,0.000,0.000,34.432
12312,4.183,0.000,2.932,0.000,11.400,0.000,0.000,34.454
12330,4.183,0.000,2.932,0.000,11.400,0.000,0.000,34.453
12348,4.183,0.000,2.932,0.000,11.400,0.000,0.000,34.439
12366,4.183,0.000,2.932,0.000,11.400,0.000,0.000,34.459
12384,4.182,0.000,2.932,0.000,11.400,0.000,0.000,34.487
12402,4.182,0.000,2.932,0.000,11.400,0.000,0.000,34.441
12420,4.182,0.000,2.932,0.000,11.400,0.000,0.000,34.455
12438,4.183,0.000,2.932,0.000,11.400,0.000,0.000,34.431
12456,4.182,0.000,2.932,0.000,11.400,0.000,0.000,34.449
12473,4.182,0.000,2.932,0.000,11.400,0.000,-0.001,34.460
12491,3.103,-16.747,2.932,0.084,11.400,0.267,-0.007,36.243
12509,2.976,-16.747,2.932,0.167,11.400,0.521,-0.008,38.841
12527,3.951,0.000,2.932,0.226,11.400,0.690,0.011,41.522
12545,4.023,0.000,2.932,0.226,11.400,0.690,0.002,42.608
12563,4.047,0.000,2.932,0.226,11.400,0.690,0.001,42.706
12581,4.058,0.000,2.932,0.226,11.400,0.690,0.001,42.406
12599,4.066,0.000,2.932,0.226,11.400,0.690,0.000,42.006
12617,4.072,0.000,2.932,0.226,11.400,0.690,0.000,41.533
12635,4.077,0.000,2.932,0.226,11.400,0.690,0.000,41.169
12653,4.080,0.000,2.932,0.226,11.400,0.690,0.000,40.713
12671,4.083,0.000,2.932,0.226,11.400,0.690,0.000,40.305
12689,4.085,0.000,2.932,0.226,11.400,0.690,0.000,39.919
12707,4.086,0.000,2.932,0.226,11.400,0.690,0.000,39.620
12725,4.086,0.000,2.932,0.226,11.400,0.690,0.000,39.295
12743,4.087,0.000,2.932,0.226,11.400,0.690,0.000,38.962
12761,4.087,0.000,2.932,0.226,11.400,0.690,0.000,38.759
12779,4.088,0.000,2.932,0.226,11.400,0.690,0.000,38.485
12797,4.088,0.000,2.932,0.226,11.400,0.690,0.000,38.199
12815,4.088,0.000,2.932,0.226,11.400,0.690,0.000,37.954
12833,4.088,0.000,2.932,0.226,11.400,0.690,0.000,37.842
12851,4.089,0.000,2.932,0.226,11.400,0.690,0.000,37.596
12869,4.089,0.000,2.932,0.226,11.400,0.690,0.000,37.401
12887,4.089,0.000,2.932,0.226,11.400,0.690,0.000,37.198
12905,4.089,0.000,2.932,0.226,11.400,0.690,0.000,37.056
12923,4.089,0.000,2.932,0.226,11.400,0.690,0.000,36.939
12941,4.089,0.000,2.932,0.226,11.400,0.690,0.000,36.829
12959,4.089,0.000,2.932,0.226,11.400,0.690,0.000,36.709
12977,4.089,0.000,2.932,0.226,11.400,0.690,0.000,36.578
12995,4.089,0.000,2.932,0.226,11.400,0.690,0.000,36.458
13013,4.089,0.000,2.932,0.226,11.400,0.690,0.000,36.345
13031,4.089,0.000,2.932,0.226,11.400,0.690,0.000,36.255
13049,4.089,0.000,2.932,0.226,11.400,0.690,0.000,36.110
13067,4.089,0.000,2.932,0.226,11.400,0.690,0.000,36.061
13085,4.089,0.000,2.932,0.226,11.400,0.690,0.000,35.996
13103,4.089,0.000,2.932,0.226,11.400,0.690,0.000,35.879
13121,4.090,0.000,2.932,0.226,11.400,0.690,0.000,35.801
13139,4.090,0.000,2.932,0.226,11.400,0.690,0.000,35.782
13157,4.090,0.000,2.932,0.226,11.400,0.690,0.000,35.745
13175,4.090,0.000,2.932,0.226,11.400,0.690,0.000,35.676
13193,4.090,0.000,2.932,0.226,11.400,0.690,0.000,35.604
13211,4.090,0.000,2.932,0.226,11.400,0.690,0.000,35.485
13229,4.090,0.000,2.932,0.226,11.400,0.690,0.000,35.484
13247,4.090,0.000,2.932,0.226,11.400,0.690,0.000,35.380
13265,4.090,0.000,2.932,0.226,11.400,0.690,0.000,35.382
13283,4.090,0.000,2.932,0.226,11.400,0.690,0.000,35.358
13301,4.090,0.000,2.932,0.226,11.400,0.690,0.000,35.302
13319,4.090,0.000,2.932,0.226,11.400,0.690,0.000,35.233
13337,4.090,0.000,2.932,0.226,11.400,0.690,0.000,35.198
13355,4.090,0.000,2.932,0.226,11.400,0.690,0.000,35.166
13373,4.090,0.000,2.932,0.226,11.400,0.690,0.000,35.153
13391,4.090,0.000,2.932,0.226,11.400,0.690,0.000,35.147
13409,4.090,0.000,2.932,0.226,11.400,0.690,0.000,35.058
13427,4.090,0.000,2.932,0.226,11.400,0.690,0.000,35.052
13445,4.090,0.000,2.932,0.226,11.400,0.690,0.000,34.988
13463,4.090,0.000,2.932,0.226,11.400,0.690,0.000,34.996
13481,4.090,0.000,2.932,0.226,11.400,0.690,0.000,34.941
13499,4.090,0.000,2.932,0.226,11.400,0.690,0.000,34.939
13517,4.090,0.000,2.932,0.226,11.400,0.690,0.000,34.890
13535,4.090,0.000,2.932,0.226,11.400,0.690,0.000,34.891
13553,4.090,0.000,2.932,0.226,11.400,0.690,0.000,34.886
13571,4.090,0.000,2.932,0.226,11.400,0.690,0.000,34.885
13589,4.090,0.000,2.932,0.226,11.400,0.690,0.000,34.873
13607,4.090,0.000,2.932,0.226,11.400,0.690,0.000,34.805
13625,4.090,0.000,2.932,0.226,11.400,0.690,0.000,34.819
13643,4.090,0.000,2.932,0.226,11.400,0.690,0.000,34.817
13661,4.090,0.000,2.932,0.226,11.400,0.690,0.000,34.791
13679,4.090,0.000,2.932,0.226,11.400,0.690,0.000,34.746
13697,4.090,0.000,2.932,0.226,11.400,0.690,0.000,34.760
13715,4.090,0.000,2.932,0.226,11.400,0.690,0.000,34.759
13733,4.090,0.000,2.932,0.226,11.400,0.690,0.000,34.740
13751,4.090,0.000,2.932,0.226,11.400,0.690,0.000,34.748
13769,4.090,0.000,2.932,0.226,11.400,0.690,0.000,34.726
13787,4.090,0.000,2.932,0.226,11.400,0.690,0.000,34.663
13805,4.090,0.000,2.932,0.226,11.400,0.690,0.000,34.730
13823,4.090,0.000,2.932,0.226,11.400,0.690,0.000,34.693
13841,4.090,0.000,2.932,0.226,11.400,0.690,0.000,34.668
13859,4.090,0.000,2.932,0.226,11.400,0.690,0.000,34.676
13877,4.090,0.000,2.932,0.226,11.400,0.690,0.000,34.643
13895,4.090,0.000,2.932,0.226,11.400,0.690,0.000,34.656
13913,4.090,0.000,2.932,0.226,11.400,0.690,0.000,34.629
13931,4.090,0.000,2.932,0.226,11.400,0.690,0.000,34.595
13949,4.090,0.000,2.932,0.226,11.400,0.690,0.000,34.644
13967,4.090,0.000,2.932,0.226,11.400,0.690,0.000,34.656
13985,4.090,0.000,2.932,0.226,11.400,0.690,0.000,34.632
14003,4.090,0.000,2.932,0.226,11.400,0.690,0.000,34.620
14021,4.090,0.000,2.932,0.226,11.400,0.690,0.000,34.611
14039,4.090,0.000,2.932,0.226,11.400,0.690,0.000,34.624
14057,4.090,0.000,2.932,0.226,11.400,0.690,0.000,34.592
14075,4.091,0.000,2.932,0.226,11.400,0.690,0.000,34.603
14093,4.091,0.000,2.932,0.226,11.400,0.690,0.000,34.583
14111,4.090,0.000,2.932,0.226,11.400,0.690,0.000,34.572
14129,4.090,0.000,2.932,0.226,11.400,0.690,0.000,34.585
14147,4.090,0.000,2.932,0.226,11.400,0.690,0.000,34.561
14165,4.091,0.000,2.932,0.226,11.400,0.690,0.000,34.559
14183,4.091,0.000,2.932,0.226,11.400,0.690,0.000,34.574
14201,4.091,0.000,2.932,0.226,11.400,0.690,0.000,34.521
14219,4.091,0.000,2.932,0.226,11.400,0.690,0.000,34.564
14237,4.091,0.000,2.932,0.226,11.400,0.690,0.000,34.573
14255,4.090,0.000,2.932,0.226,11.400,0.690,0.000,34.518
14273,4.090,0.000,2.932,0.226,11.400,0.690,0.000,34.515
14291,4.091,0.000,2.932,0.226,11.400,0.690,0.000,34.545
14309,4.090,0.000,2.932,0.226,11.400,0.690,0.000,34.536
14327,4.091,0.000,2.932,0.226,11.400,0.690,0.000,34.556
14345,4.091,0.000,2.932,0.226,11.400,0.690,0.000,34.542
14363,4.091,0.000,2.932,0.226,11.400,0.690,0.000,34.556
14381,4.091,0.000,2.932,0.226,11.400,0.690,0.000,34.517
14399,4.091,0.000,2.932,0.226,11.400,0.690,0.000,34.516
14417,4.091,0.000,2.932,0.226,11.400,0.690,0.000,34.501
14435,4.091,0.000,2.932,0.226,11.400,0.690,0.000,34.486
14453,4.091,0.000,2.932,0.226,11.400,0.690,0.000,34.473
14471,4.091,0.000,2.932,0.226,11.400,0.690,0.000,34.509
14489,4.091,0.000,2.932,0.226,11.400,0.690,0.000,34.506
14507,4.091,0.000,2.932,0.226,11.400,0.690,0.000,34.518
14525,4.091,0.000,2.932,0.226,11.400,0.690,0.000,34.510
14543,4.091,0.000,2.932,0.226,11.400,0.690,0.000,34.493
14561,4.091,0.000,2.932,0.226,11.400,0.690,0.000,34.497
14579,4.090,0.000,2.932,0.226,11.400,0.690,0.000,34.504
14597,4.091,0.000,2.932,0.226,11.400,0.690,0.000,34.502
14615,4.091,0.000,2.932,0.226,11.400,0.690,0.000,34.511
14633,4.091,0.000,2.932,0.226,11.400,0.690,0.000,34.472
14651,4.091,0.000,2.932,0.226,11.400,0.690,0.000,34.496
14669,4.091,0.000,2.932,0.226,11.400,0.690,0.000,34.500
14687,4.091,0.000,2.932,0.226,11.400,0.690,0.000,34.520
14705,4.091,0.000,2.932,0.226,11.400,0.690,0.000,34.506
14723,4.091,0.000,2.932,0.226,11.400,0.690,0.000,34.517
14741,4.091,0.000,2.932,0.226,11.400,0.690,0.000,34.491
14759,4.091,0.000,2.932,0.226,11.400,0.690,0.000,34.510
14777,4.091,0.000,2.932,0.226,11.400,0.690,0.000,34.500
14795,4.091,0.000,2.932,0.226,11.400,0.690,0.000,34.504
14813,4.091,0.000,2.932,0.226,11.400,0.690,0.000,34.523
14831,4.091,0.000,2.932,0.226,11.400,0.690,0.000,34.530
14849,4.091,0.000,2.932,0.226,11.400,0.690,0.000,34.475
14867,4.091,0.000,2.932,0.226,11.400,0.690,0.000,34.451
14885,4.091,0.000,2.932,0.226,11.400,0.690,0.000,34.513
14903,4.091,0.000,2.932,0.226,11.400,0.690,0.000,34.455
14921,4.091,0.000,2.932,0.226,11.400,0.690,0.000,34.492
14939,4.091,0.000,2.932,0.226,11.400,0.690,0.000,34.443
14957,4.091,0.000,2.932,0.226,11.400,0.690,0.000,34.476
14975,4.091,0.000,2.932,0.226,11.400,0.690,0.000,34.517
14993,4.091,0.000,2.932,0.226,11.400,0.690,0.000,34.503
15011,4.091,0.000,2.932,0.226,11.400,0.690,0.000,34.507
15029,4.091,0.000,2.932,0.226,11.400,0.690,0.000,34.467
15047,4.091,0.000,2.932,0.226,11.400,0.690,0.000,34.490
15065,4.091,0.000,2.932,0.226,11.400,0.690,0.000,34.462
15083,4.091,0.000,2.932,0.226,11.400,0.690,0.000,34.480
15101,4.091,0.000,2.932,0.226,11.400,0.690,0.000,34.466
15119,4.091,0.000,2.932,0.226,11.400,0.690,0.000,34.505
15137,4.091,0.000,2.932,0.226,11.400,0.690,0.000,34.515
15155,4.091,0.000,2.932,0.226,11.400,0.690,0.000,34.494
15173,4.091,0.000,2.932,0.226,11.400,0.690,0.000,34.461
15191,4.091,0.000,2.932,0.226,11.400,0.690,0.000,34.464
15209,4.091,0.000,2.932,0.226,11.400,0.690,0.000,34.449
15227,4.091,0.000,2.932,0.226,11.400,0.690,0.000,34.478
15245,4.091,0.000,2.932,0.226,11.400,0.690,0.000,34.456
15263,4.091,0.000,2.932,0.226,11.400,0.690,0.000,34.484
15281,4.091,0.000,2.932,0.226,11.400,0.690,0.000,34.471
15299,4.091,0.000,2.932,0.226,11.400,0.690,0.000,34.514
15317,4.091,0.000,2.932,0.226,11.400,0.690,0.000,34.484
15335,4.091,0.000,2.932,0.226,11.400,0.690,0.000,34.500
15353,4.091,0.000,2.932,0.226,11.400,0.690,0.000,34.455
15371,4.091,0.000,2.932,0.226,11.400,0.690,0.000,34.460
15389,4.091,0.000,2.932,0.226,11.400,0.690,0.000,34.482
15407,4.091,0.000,2.932,0.226,11.400,0.690,0.000,34.449
15425,4.091,0.000,2.932,0.226,11.400,0.690,0.000,34.467
15443,4.091,0.000,2.932,0.226,11.400,0.690,0.000,34.498
15461,4.091,0.000,2.932,0.226,11.400,0.690,0.000,34.511
15479,4.091,0.000,2.932,0.226,11.400,0.690,0.000,34.489
15497,4.091,0.000,2.932,0.226,11.400,0.690,0.000,34.477
15515,4.091,0.000,2.932,0.226,11.400,0.690,0.000,34.455
15533,4.091,0.000,2.932,0.226,11.400,0.690,0.000,34.468
15551,4.091,0.000,2.932,0.226,11.400,0.690,0.000,34.457
15569,4.091,0.000,2.932,0.226,11.400,0.690,0.000,34.484
15587,4.091,0.000,2.932,0.226,11.400,0.690,0.000,34.467
15605,4.091,0.000,2.932,0.226,11.400,0.690,0.000,34.499
15623,4.091,0.000,2.932,0.226,11.400,0.690,0.000,34.451
15641,4.091,0.000,2.932,0.226,11.400,0.690,0.000,34.458
15659,4.091,0.000,2.932,0.226,11.400,0.690,0.000,34.460
15677,4.091,0.000,2.932,0.226,11.400,0.690,0.000,34.456
15695,4.091,0.000,2.932,0.226,11.400,0.690,0.000,34.464
15713,4.091,0.000,2.932,0.226,11.400,0.690,0.000,34.491
15731,4.091,0.000,2.932,0.226,11.400,0.690,0.000,34.462
15749,4.091,0.000,2.932,0.226,11.400,0.690,0.000,34.489
15767,4.091,0.000,2.932,0.226,11.400,0.690,0.000,34.452
15785,4.091,0.000,2.932,0.226,11.400,0.690,0.000,34.445
15803,4.091,0.000,2.932,0.226,11.400,0.690,0.000,34.436
15821,4.091,0.000,2.932,0.226,11.400,0.690,0.000,34.475
15839,4.091,0.000,2.932,0.226,11.400,0.690,0.000,34.477
15857,4.091,0.000,2.932,0.226,11.400,0.690,0.000,34.427
15875,4.091,0.000,2.932,0.226,11.400,0.690,0.000,34.459
15893,4.091,0.000,2.932,0.226,11.400,0.690,0.000,34.473
15911,4.091,0.000,2.932,0.226,11.400,0.690,0.000,34.495
15929,4.091,0.000,2.932,0.226,11.400,0.690,0.000,34.480
15947,4.091,0.000,2.932,0.226,11.400,0.690,0.000,34.470
15965,4.091,0.000,2.932,0.226,11.400,0.690,0.000,34.448
15983,4.091,0.000,2.932,0.226,11.400,0.690,0.000,34.468
16001,4.091,0.000,2.932,0.226,11.400,0.690,0.000,34.455
16019,4.091,0.000,2.932,0.226,11.400,0.690,0.000,34.492
16037,4.091,0.000,2.932,0.226,11.400,0.690,0.000,34.426
16055,4.091,0.000,2.932,0.226,11.400,0.690,0.000,34.432
16073,4.091,0.000,2.932,0.226,11.400,0.690,0.000,34.460
16091,4.091,0.000,2.932,0.226,11.400,0.690,0.000,34.446
16109,4.091,0.000,2.932,0.226,11.400,0.690,0.000,34.454
16122,4.091,0.000,2.932,0.226,11.400,0.690,0.000,34.474