File: data/T35/HPPC/3.csv
time_s,voltage_v,current_a,chargecapacity_ah,dischargecapacity_ah,charge_energy_wh,discharge_energy_wh,voltagedot_v_per_s,temp_degc
1,3.773,0.000,0.000,0.000,0.000,0.000,0.000,35.100
55,3.773,0.000,0.000,0.000,0.000,0.000,0.000,35.064
109,3.773,0.000,0.000,0.000,0.000,0.000,0.000,35.105
163,3.773,0.000,0.000,0.000,0.000,0.000,0.000,35.135
217,3.773,0.000,0.000,0.000,0.000,0.000,0.000,35.101
271,3.773,0.000,0.000,0.000,0.000,0.000,0.000,35.087
325,3.773,0.000,0.000,0.000,0.000,0.000,0.000,35.096
379,3.773,0.000,0.000,0.000,0.000,0.000,0.000,35.117
433,3.773,0.000,0.000,0.000,0.000,0.000,0.000,35.117
487,3.773,0.000,0.000,0.000,0.000,0.000,0.000,35.092
541,3.773,0.000,0.000,0.000,0.000,0.000,0.000,35.089
595,3.773,0.000,0.000,0.000,0.000,0.000,0.000,35.083
649,3.773,0.000,0.000,0.000,0.000,0.000,0.000,35.149
703,3.773,0.000,0.000,0.000,0.000,0.000,0.000,35.134
757,3.773,0.000,0.000,0.000,0.000,0.000,0.000,35.132
811,3.773,0.000,0.000,0.000,0.000,0.000,0.000,35.148
865,3.773,0.000,0.000,0.000,0.000,0.000,0.000,35.131
919,3.773,0.000,0.000,0.000,0.000,0.000,0.000,35.158
973,3.773,0.000,0.000,0.000,0.000,0.000,0.000,35.176
1027,3.773,0.000,0.000,0.000,0.000,0.000,0.000,35.064
1081,3.773,0.000,0.000,0.000,0.000,0.000,0.000,35.040
1135,3.773,0.000,0.000,0.000,0.000,0.000,0.000,35.157
1189,3.773,0.000,0.000,0.000,0.000,0.000,0.000,35.245
1243,3.773,0.000,0.000,0.000,0.000,0.000,0.000,35.131
1297,3.773,0.000,0.000,0.000,0.000,0.000,0.000,35.152
1351,3.773,0.000,0.000,0.000,0.000,0.000,0.000,35.223
1405,3.773,0.000,0.000,0.000,0.000,0.000,0.000,35.166
1459,3.773,0.000,0.000,0.000,0.000,0.000,0.000,35.115
1513,3.773,0.000,0.000,0.000,0.000,0.000,0.000,35.127
1567,3.773,0.000,0.000,0.000,0.000,0.000,0.000,35.172
1621,3.773,0.000,0.000,0.000,0.000,0.000,0.000,35.115
1675,3.773,0.000,0.000,0.000,0.000,0.000,0.000,35.104
1729,3.773,0.000,0.000,0.000,0.000,0.000,0.000,35.141
1783,3.773,0.000,0.000,0.000,0.000,0.000,0.000,35.093
1837,3.773,0.000,0.000,0.000,0.000,0.000,0.000,35.094
1891,3.773,0.000,0.000,0.000,0.000,0.000,0.000,35.134
1945,3.773,0.000,0.000,0.000,0.000,0.000,0.000,35.101
1999,3.773,0.000,0.000,0.000,0.000,0.000,0.000,35.125
2053,3.773,0.000,0.000,0.000,0.000,0.000,0.000,35.093
2107,3.773,0.000,0.000,0.000,0.000,0.000,0.000,35.127
2161,3.773,0.000,0.000,0.000,0.000,0.000,0.000,35.081
2215,3.773,0.000,0.000,0.000,0.000,0.000,0.000,35.070
2269,3.773,0.000,0.000,0.000,0.000,0.000,0.000,35.109
2323,3.773,0.000,0.000,0.000,0.000,0.000,0.000,35.098
2377,3.773,0.000,0.000,0.000,0.000,0.000,0.000,35.067
2431,3.773,0.000,0.000,0.000,0.000,0.000,0.000,35.053
2485,3.773,0.000,0.000,0.000,0.000,0.000,0.000,35.087
2539,3.773,0.000,0.000,0.000,0.000,0.000,0.000,35.028
2593,3.773,0.000,0.000,0.000,0.000,0.000,0.000,35.092
2647,3.773,0.000,0.000,0.000,0.000,0.000,0.000,35.085
2701,3.773,0.000,0.000,0.000,0.000,0.000,0.000,35.063
2755,3.773,0.000,0.000,0.000,0.000,0.000,0.000,35.093
2809,3.773,0.000,0.000,0.000,0.000,0.000,0.000,35.023
2863,3.773,0.000,0.000,0.000,0.000,0.000,0.000,35.068
2917,3.773,0.000,0.000,0.000,0.000,0.000,0.000,35.028
2971,3.773,0.000,0.000,0.000,0.000,0.000,0.000,35.037
3025,3.773,0.000,0.000,0.000,0.000,0.000,0.000,35.028
3079,3.773,0.000,0.000,0.000,0.000,0.000,0.000,34.995
3133,3.773,0.000,0.000,0.000,0.000,0.000,0.000,35.032
3187,3.773,0.000,0.000,0.000,0.000,0.000,0.000,35.000
3241,3.773,0.000,0.000,0.000,0.000,0.000,0.000,35.062
3295,3.773,0.000,0.000,0.000,0.000,0.000,0.000,35.037
3349,3.773,0.000,0.000,0.000,0.000,0.000,0.000,35.044
3403,3.773,0.000,0.000,0.000,0.000,0.000,0.000,35.042
3457,3.773,0.000,0.000,0.000,0.000,0.000,0.000,35.036
3511,3.773,0.000,0.000,0.000,0.000,0.000,0.000,35.025
3565,3.773,0.000,0.000,0.000,0.000,0.000,0.000,34.993
3618,3.865,1.625,0.008,0.000,0.031,0.000,0.001,35.098
3672,3.880,1.625,0.033,0.000,0.126,0.000,0.000,35.228
3726,3.888,1.625,0.057,0.000,0.220,0.000,0.000,35.222
3780,3.896,1.625,0.081,0.000,0.315,0.000,0.000,35.331
3834,3.904,1.625,0.106,0.000,0.410,0.000,0.000,35.391
3888,3.912,1.625,0.130,0.000,0.506,0.000,0.000,35.429
3942,3.919,1.625,0.154,0.000,0.601,0.000,0.000,35.502
3996,3.927,1.625,0.179,0.000,0.697,0.000,0.000,35.544
4050,3.935,1.625,0.203,0.000,0.793,0.000,0.000,35.619
4104,3.942,1.625,0.228,0.000,0.889,0.000,0.000,35.630
4158,3.950,1.625,0.252,0.000,0.985,0.000,0.000,35.666
4212,3.957,1.625,0.276,0.000,1.081,0.000,0.000,35.687
4266,3.965,1.625,0.301,0.000,1.178,0.000,0.000,35.724
4320,3.972,1.625,0.325,0.000,1.275,0.000,0.000,35.765
4374,3.979,1.625,0.349,0.000,1.371,0.000,0.000,35.777
4428,3.987,1.625,0.374,0.000,1.469,0.000,0.000,35.768
4482,3.994,1.625,0.398,0.000,1.566,0.000,0.000,35.847
4536,4.002,1.625,0.423,0.000,1.663,0.000,0.000,35.821
4590,4.009,1.625,0.447,0.000,1.761,0.000,0.000,35.870
4644,4.016,1.625,0.471,0.000,1.859,0.000,0.000,35.900
4698,4.024,1.625,0.496,0.000,1.957,0.000,0.000,35.869
4752,4.031,1.625,0.520,0.000,2.055,0.000,0.000,35.864
4806,4.039,1.625,0.544,0.000,2.153,0.000,0.000,35.935
4860,4.047,1.625,0.569,0.000,2.252,0.000,0.000,35.920
4914,4.055,1.625,0.593,0.000,2.351,0.000,0.000,35.996
4968,4.063,1.625,0.618,0.000,2.450,0.000,0.000,36.059
5022,4.071,1.625,0.642,0.000,2.549,0.000,0.000,36.042
5076,4.080,1.625,0.666,0.000,2.648,0.000,0.000,36.045
5130,4.089,1.625,0.691,0.000,2.748,0.000,0.000,36.099
5184,4.099,1.625,0.715,0.000,2.848,0.000,0.000,36.071
5238,4.108,1.625,0.740,0.000,2.948,0.000,0.000,36.133
5292,4.118,1.625,0.764,0.000,3.048,0.000,0.000,36.158
5346,4.128,1.625,0.788,0.000,3.148,0.000,0.000,36.142
5400,4.138,1.625,0.813,0.000,3.249,0.000,0.000,36.206
5454,4.149,1.625,0.837,0.000,3.350,0.000,0.000,36.213
5508,4.159,1.625,0.861,0.000,3.451,0.000,0.000,36.237
5562,4.169,1.625,0.886,0.000,3.553,0.000,0.000,36.279
5616,4.180,1.625,0.910,0.000,3.655,0.000,0.000,36.238
5670,4.190,1.625,0.935,0.000,3.757,0.000,0.000,36.267
5724,4.200,1.620,0.959,0.000,3.859,0.000,0.000,36.307
5778,4.200,1.478,0.982,0.000,3.956,0.000,0.000,36.281
5832,4.200,1.379,1.003,0.000,4.046,0.000,0.000,36.266
5886,4.200,1.296,1.023,0.000,4.130,0.000,0.000,36.239
5940,4.200,1.222,1.042,0.000,4.209,0.000,0.000,36.210
5994,4.200,1.154,1.060,0.000,4.284,0.000,0.000,36.160
6048,4.200,1.094,1.077,0.000,4.355,0.000,0.000,36.120
6102,4.200,1.036,1.093,0.000,4.422,0.000,0.000,36.090
6156,4.200,0.984,1.108,0.000,4.485,0.000,0.000,36.026
6210,4.200,0.934,1.122,0.000,4.546,0.000,0.000,35.991
6264,4.200,0.888,1.136,0.000,4.603,0.000,0.000,35.889
6318,4.200,0.843,1.149,0.000,4.657,0.000,0.000,35.835
6372,4.200,0.800,1.161,0.000,4.709,0.000,0.000,35.806
6426,4.200,0.759,1.173,0.000,4.758,0.000,0.000,35.711
6480,4.200,0.720,1.184,0.000,4.805,0.000,0.000,35.732
6534,4.200,0.681,1.195,0.000,4.849,0.000,0.000,35.685
6588,4.200,0.646,1.205,0.000,4.891,0.000,0.000,35.631
6642,4.200,0.612,1.214,0.000,4.930,0.000,0.000,35.616
6696,4.200,0.578,1.223,0.000,4.968,0.000,0.000,35.554
6750,4.200,0.546,1.231,0.000,5.003,0.000,0.000,35.527
6804,4.200,0.515,1.239,0.000,5.037,0.000,0.000,35.504
6858,4.200,0.486,1.247,0.000,5.068,0.000,0.000,35.421
6912,4.200,0.458,1.254,0.000,5.098,0.000,0.000,35.415
6966,4.200,0.431,1.261,0.000,5.126,0.000,0.000,35.380
7020,4.200,0.406,1.267,0.000,5.152,0.000,0.000,35.312
7074,4.200,0.382,1.273,0.000,5.177,0.000,0.000,35.272
7128,4.200,0.358,1.278,0.000,5.200,0.000,0.000,35.299
7182,4.200,0.337,1.283,0.000,5.222,0.000,0.000,35.265
7236,4.200,0.318,1.288,0.000,5.243,0.000,0.000,35.197
7290,4.200,0.299,1.293,0.000,5.262,0.000,0.000,35.234
7344,4.200,0.280,1.297,0.000,5.280,0.000,0.000,35.235
7398,4.200,0.262,1.301,0.000,5.297,0.000,0.000,35.216
7452,4.200,0.246,1.305,0.000,5.313,0.000,0.000,35.198
7506,4.200,0.231,1.309,0.000,5.328,0.000,0.000,35.133
7560,4.200,0.217,1.312,0.000,5.342,0.000,0.000,35.167
7614,4.200,0.205,1.315,0.000,5.356,0.000,0.000,35.105
7668,4.200,0.191,1.318,0.000,5.368,0.000,0.000,35.133
7722,4.200,0.180,1.321,0.000,5.380,0.000,0.000,35.134
7776,4.200,0.168,1.324,0.000,5.391,0.000,0.000,35.137
7830,4.200,0.160,1.326,0.000,5.401,0.000,0.000,35.063
7884,4.200,0.149,1.328,0.000,5.411,0.000,0.000,35.055
7938,4.200,0.140,1.331,0.000,5.420,0.000,0.000,35.059
7992,4.200,0.132,1.333,0.000,5.429,0.000,0.000,35.076
8046,4.200,0.124,1.335,0.000,5.437,0.000,0.000,35.051
8100,4.200,0.117,1.336,0.000,5.444,0.000,0.000,34.997
8154,4.200,0.111,1.338,0.000,5.451,0.000,0.000,35.039
8208,4.200,0.104,1.340,0.000,5.458,0.000,0.000,35.019
8262,4.200,0.098,1.341,0.000,5.465,0.000,0.000,35.018
8316,4.200,0.092,1.343,0.000,5.471,0.000,0.000,34.978
8370,4.200,0.088,1.344,0.000,5.476,0.000,0.000,35.020
8424,4.200,0.083,1.345,0.000,5.482,0.000,0.000,35.022
8478,4.200,0.079,1.346,0.000,5.487,0.000,0.000,35.025
8532,4.200,0.074,1.348,0.000,5.491,0.000,0.000,35.033
8586,4.200,0.070,1.349,0.000,5.496,0.000,0.000,35.024
8640,4.200,0.066,1.350,0.000,5.500,0.000,0.000,34.990
8693,4.194,0.000,1.350,0.000,5.501,0.000,0.000,35.021
8747,4.193,0.000,1.350,0.000,5.501,0.000,0.000,34.962
8801,4.193,0.000,1.350,0.000,5.501,0.000,0.000,35.007
8855,4.192,0.000,1.350,0.000,5.501,0.000,0.000,35.011
8909,4.192,0.000,1.350,0.000,5.501,0.000,0.000,34.978
8963,4.191,0.000,1.350,0.000,5.501,0.000,0.000,34.983
9017,4.191,0.000,1.350,0.000,5.501,0.000,0.000,34.986
9071,4.190,0.000,1.350,0.000,5.501,0.000,0.000,34.991
9125,4.190,0.000,1.350,0.000,5.501,0.000,0.000,35.019
9179,4.190,0.000,1.350,0.000,5.501,0.000,0.000,34.958
9233,4.189,0.000,1.350,0.000,5.501,0.000,0.000,34.949
9287,4.189,0.000,1.350,0.000,5.501,0.000,0.000,34.926
9341,4.189,0.000,1.350,0.000,5.501,0.000,0.000,34.923
9395,4.189,0.000,1.350,0.000,5.501,0.000,0.000,34.982
9449,4.188,0.000,1.350,0.000,5.501,0.000,0.000,34.975
9503,4.188,0.000,1.350,0.000,5.501,0.000,0.000,34.951
9557,4.188,0.000,1.350,0.000,5.501,0.000,0.000,34.967
9611,4.188,0.000,1.350,0.000,5.501,0.000,0.000,34.967
9665,4.188,0.000,1.350,0.000,5.501,0.000,0.000,34.955
9719,4.188,0.000,1.350,0.000,5.501,0.000,0.000,34.964
9773,4.187,0.000,1.350,0.000,5.501,0.000,0.000,34.928
9827,4.187,0.000,1.350,0.000,5.501,0.000,0.000,34.905
9881,4.187,0.000,1.350,0.000,5.501,0.000,0.000,34.941
9935,4.187,0.000,1.350,0.000,5.501,0.000,0.000,34.915
9989,4.187,0.000,1.350,0.000,5.501,0.000,0.000,34.952
10043,4.187,0.000,1.350,0.000,5.501,0.000,0.000,34.932
10097,4.187,0.000,1.350,0.000,5.501,0.000,0.000,34.900
10151,4.187,0.000,1.350,0.000,5.501,0.000,0.000,34.956
10205,4.187,0.000,1.350,0.000,5.501,0.000,0.000,34.931
10259,4.186,0.000,1.350,0.000,5.501,0.000,0.000,34.900
10313,4.186,0.000,1.350,0.000,5.501,0.000,0.000,34.915
10367,4.186,0.000,1.350,0.000,5.501,0.000,0.000,34.914
10421,4.186,0.000,1.350,0.000,5.501,0.000,0.000,34.907
10475,4.186,0.000,1.350,0.000,5.501,0.000,0.000,34.889
10529,4.186,0.000,1.350,0.000,5.501,0.000,0.000,34.936
10583,4.186,0.000,1.350,0.000,5.501,0.000,0.000,34.977
10637,4.186,0.000,1.350,0.000,5.501,0.000,0.000,34.946
10691,4.186,0.000,1.350,0.000,5.501,0.000,0.000,34.935
10745,4.186,0.000,1.350,0.000,5.501,0.000,0.000,34.935
10799,4.186,0.000,1.350,0.000,5.501,0.000,0.000,34.910
10853,4.185,0.000,1.350,0.000,5.501,0.000,0.000,34.907
10907,4.185,0.000,1.350,0.000,5.501,0.000,0.000,34.928
10961,4.185,0.000,1.350,0.000,5.501,0.000,0.000,34.913
11015,4.185,0.000,1.350,0.000,5.501,0.000,0.000,34.936
11069,4.185,0.000,1.350,0.000,5.501,0.000,0.000,34.904
11123,4.185,0.000,1.350,0.000,5.501,0.000,0.000,34.886
11177,4.185,0.000,1.350,0.000,5.501,0.000,0.000,34.872
11231,4.185,0.000,1.350,0.000,5.501,0.000,0.000,34.885
11285,4.185,0.000,1.350,0.000,5.501,0.000,0.000,34.885
11339,4.185,0.000,1.350,0.000,5.501,0.000,0.000,34.925
11393,4.185,0.000,1.350,0.000,5.501,0.000,0.000,34.908
11447,4.185,0.000,1.350,0.000,5.501,0.000,0.000,34.909
11501,4.185,0.000,1.350,0.000,5.501,0.000,0.000,34.900
11555,4.185,0.000,1.350,0.000,5.501,0.000,0.000,34.929
11609,4.185,0.000,1.350,0.000,5.501,0.000,0.000,34.867
11663,4.185,0.000,1.350,0.000,5.501,0.000,0.000,34.915
11717,4.185,0.000,1.350,0.000,5.501,0.000,0.000,34.924
11771,4.185,0.000,1.350,0.000,5.501,0.000,0.000,34.903
11825,4.184,0.000,1.350,0.000,5.501,0.000,0.000,34.920
11879,4.184,0.000,1.350,0.000,5.501,0.000,0.000,34.931
11933,4.184,0.000,1.350,0.000,5.501,0.000,0.000,34.862
11987,4.184,0.000,1.350,0.000,5.501,0.000,0.000,34.908
12041,4.184,0.000,1.350,0.000,5.501,0.000,0.000,34.880
12095,4.184,0.000,1.350,0.000,5.501,0.000,0.000,34.935
12149,4.184,0.000,1.350,0.000,5.501,0.000,0.000,35.019
12203,4.184,0.000,1.350,0.000,5.501,0.000,0.000,35.048
12256,3.964,-3.350,1.350,0.011,5.501,0.044,-0.002,35.013
12310,3.921,-3.350,1.350,0.061,5.501,0.242,0.000,35.327
12364,3.901,-3.350,1.350,0.112,5.501,0.439,0.000,35.729
12418,3.885,-3.350,1.350,0.162,5.501,0.634,0.000,36.073
12472,3.870,-3.350,1.350,0.212,5.501,0.829,0.000,36.286
12526,3.855,-3.350,1.350,0.262,5.501,1.024,0.000,36.490
12580,3.840,-3.350,1.350,0.313,5.501,1.217,0.000,36.619
12633,4.024,0.000,1.350,0.335,5.501,1.303,0.001,36.736
12687,4.044,0.000,1.350,0.335,5.501,1.303,0.000,36.490
12741,4.051,0.000,1.350,0.335,5.501,1.303,0.000,36.274
12795,4.054,0.000,1.350,0.335,5.501,1.303,0.000,36.080
12849,4.055,0.000,1.350,0.335,5.501,1.303,0.000,35.914
12903,4.056,0.000,1.350,0.335,5.501,1.303,0.000,35.730
12957,4.057,0.000,1.350,0.335,5.501,1.303,0.000,35.627
13011,4.057,0.000,1.350,0.335,5.501,1.303,0.000,35.486
13065,4.058,0.000,1.350,0.335,5.501,1.303,0.000,35.449
13119,4.058,0.000,1.350,0.335,5.501,1.303,0.000,35.379
13173,4.058,0.000,1.350,0.335,5.501,1.303,0.000,35.333
13227,4.058,0.000,1.350,0.335,5.501,1.303,0.000,35.230
13281,4.059,0.000,1.350,0.335,5.501,1.303,0.000,35.188
13335,4.059,0.000,1.350,0.335,5.501,1.303,0.000,35.127
13389,4.059,0.000,1.350,0.335,5.501,1.303,0.000,35.121
13443,4.059,0.000,1.350,0.335,5.501,1.303,0.000,35.102
13497,4.059,0.000,1.350,0.335,5.501,1.303,0.000,35.078
13551,4.059,0.000,1.350,0.335,5.501,1.303,0.000,35.014
13605,4.059,0.000,1.350,0.335,5.501,1.303,0.000,35.058
13659,4.059,0.000,1.350,0.335,5.501,1.303,0.000,34.964
13713,4.059,0.000,1.350,0.335,5.501,1.303,0.000,34.965
13767,4.060,0.000,1.350,0.335,5.501,1.303,0.000,34.967
13821,4.060,0.000,1.350,0.335,5.501,1.303,0.000,34.997
13875,4.060,0.000,1.350,0.335,5.501,1.303,0.000,34.949
13929,4.060,0.000,1.350,0.335,5.501,1.303,0.000,34.939
13983,4.060,0.000,1.350,0.335,5.501,1.303,0.000,34.914
14037,4.060,0.000,1.350,0.335,5.501,1.303,0.000,34.910
14091,4.060,0.000,1.350,0.335,5.501,1.303,0.000,34.857
14145,4.060,0.000,1.350,0.335,5.501,1.303,0.000,34.862
14199,4.060,0.000,1.350,0.335,5.501,1.303,0.000,34.920
14253,4.060,0.000,1.350,0.335,5.501,1.303,0.000,34.916
14307,4.060,0.000,1.350,0.335,5.501,1.303,0.000,34.867
14361,4.060,0.000,1.350,0.335,5.501,1.303,0.000,34.907
14415,4.060,0.000,1.350,0.335,5.501,1.303,0.000,34.878
14469,4.060,0.000,1.350,0.335,5.501,1.303,0.000,34.884
14523,4.060,0.000,1.350,0.335,5.501,1.303,0.000,34.893
14577,4.060,0.000,1.350,0.335,5.501,1.303,0.000,34.878
14631,4.060,0.000,1.350,0.335,5.501,1.303,0.000,34.890
14685,4.060,0.000,1.350,0.335,5.501,1.303,0.000,34.841
14739,4.060,0.000,1.350,0.335,5.501,1.303,0.000,34.911
14793,4.060,0.000,1.350,0.335,5.501,1.303,0.000,34.850
14847,4.060,0.000,1.350,0.335,5.501,1.303,0.000,34.868
14901,4.060,0.000,1.350,0.335,5.501,1.303,0.000,34.898
14955,4.060,0.000,1.350,0.335,5.501,1.303,0.000,34.811
15009,4.060,0.000,1.350,0.335,5.501,1.303,0.000,34.879
15063,4.060,0.000,1.350,0.335,5.501,1.303,0.000,34.841
15117,4.060,0.000,1.350,0.335,5.501,1.303,0.000,34.849
15171,4.060,0.000,1.350,0.335,5.501,1.303,0.000,34.853
15225,4.060,0.000,1.350,0.335,5.501,1.303,0.000,34.871
15279,4.061,0.000,1.350,0.335,5.501,1.303,0.000,34.867
15333,4.061,0.000,1.350,0.335,5.501,1.303,0.000,34.850
15387,4.060,0.000,1.350,0.335,5.501,1.303,0.000,34.892
15441,4.060,0.000,1.350,0.335,5.501,1.303,0.000,34.904
15495,4.060,0.000,1.350,0.335,5.501,1.303,0.000,34.940
15549,4.061,0.000,1.350,0.335,5.501,1.303,0.000,34.886
15603,4.061,0.000,1.350,0.335,5.501,1.303,0.000,34.887
15657,4.061,0.000,1.350,0.335,5.501,1.303,0.000,34.886
15711,4.061,0.000,1.350,0.335,5.501,1.303,0.000,34.858
15765,4.061,0.000,1.350,0.335,5.501,1.303,0.000,34.851
15819,4.061,0.000,1.350,0.335,5.501,1.303,0.000,34.827
15873,4.060,0.000,1.350,0.335,5.501,1.303,0.000,34.909
15927,4.061,0.000,1.350,0.335,5.501,1.303,0.000,34.879
15981,4.061,0.000,1.350,0.335,5.501,1.303,0.000,34.870
16035,4.061,0.000,1.350,0.335,5.501,1.303,0.000,34.866
16089,4.061,0.000,1.350,0.335,5.501,1.303,0.000,34.887
16143,4.061,0.000,1.350,0.335,5.501,1.303,0.000,34.831
16197,4.061,0.000,1.350,0.335,5.501,1.303,0.000,34.877
16249,4.053,0.000,1.350,0.343,5.501,1.336,0.000,34.898
16302,4.062,0.000,1.356,0.343,5.527,1.336,0.000,34.930
16355,3.829,-3.350,1.356,0.390,5.527,1.515,-0.001,35.141
16409,3.803,-3.350,1.356,0.440,5.527,1.707,0.000,35.497
16463,3.783,-3.350,1.356,0.491,5.527,1.897,0.000,35.765
16517,3.765,-3.350,1.356,0.541,5.527,2.087,0.000,35.965
16571,3.747,-3.350,1.356,0.591,5.527,2.276,0.000,36.205
16625,3.730,-3.350,1.356,0.641,5.527,2.463,0.000,36.338
16678,3.889,0.000,1.356,0.679,5.527,2.602,0.001,36.485
16732,3.913,0.000,1.356,0.679,5.527,2.602,0.000,36.390
16786,3.919,0.000,1.356,0.679,5.527,2.602,0.000,36.219
16840,3.923,0.000,1.356,0.679,5.527,2.602,0.000,36.066
16894,3.926,0.000,1.356,0.679,5.527,2.602,0.000,35.946
16948,3.930,0.000,1.356,0.679,5.527,2.602,0.000,35.785
17002,3.933,0.000,1.356,0.679,5.527,2.602,0.000,35.752
17056,3.937,0.000,1.356,0.679,5.527,2.602,0.000,35.599
17110,3.940,0.000,1.356,0.679,5.527,2.602,0.000,35.495
17164,3.942,0.000,1.356,0.679,5.527,2.602,0.000,35.430
17218,3.943,0.000,1.356,0.679,5.527,2.602,0.000,35.341
17272,3.944,0.000,1.356,0.679,5.527,2.602,0.000,35.270
17326,3.944,0.000,1.356,0.679,5.527,2.602,0.000,35.245
17380,3.945,0.000,1.356,0.679,5.527,2.602,0.000,35.189
17434,3.945,0.000,1.356,0.679,5.527,2.602,0.000,35.149
17488,3.945,0.000,1.356,0.679,5.527,2.602,0.000,35.113
17542,3.945,0.000,1.356,0.679,5.527,2.602,0.000,35.098
17596,3.945,0.000,1.356,0.679,5.527,2.602,0.000,35.025
17650,3.945,0.000,1.356,0.679,5.527,2.602,0.000,35.023
17704,3.945,0.000,1.356,0.679,5.527,2.602,0.000,35.003
17758,3.945,0.000,1.356,0.679,5.527,2.602,0.000,34.960
17812,3.945,0.000,1.356,0.679,5.527,2.602,0.000,34.974
17866,3.946,0.000,1.356,0.679,5.527,2.602,0.000,34.910
17920,3.946,0.000,1.356,0.679,5.527,2.602,0.000,34.941
17974,3.946,0.000,1.356,0.679,5.527,2.602,0.000,34.917
18028,3.946,0.000,1.356,0.679,5.527,2.602,0.000,34.899
18082,3.946,0.000,1.356,0.679,5.527,2.602,0.000,34.950
18136,3.946,0.000,1.356,0.679,5.527,2.602,0.000,34.915
18190,3.946,0.000,1.356,0.679,5.527,2.602,0.000,34.889
18244,3.946,0.000,1.356,0.679,5.527,2.602,0.000,34.932
18298,3.946,0.000,1.356,0.679,5.527,2.602,0.000,34.936
18352,3.946,0.000,1.356,0.679,5.527,2.602,0.000,34.891
18406,3.946,0.000,1.356,0.679,5.527,2.602,0.000,34.934
18460,3.946,0.000,1.356,0.679,5.527,2.602,0.000,34.925
18514,3.946,0.000,1.356,0.679,5.527,2.602,0.000,34.915
18568,3.946,0.000,1.356,0.679,5.527,2.602,0.000,34.897
18622,3.946,0.000,1.356,0.679,5.527,2.602,0.000,34.884
18676,3.946,0.000,1.356,0.679,5.527,2.602,0.000,34.909
18730,3.946,0.000,1.356,0.679,5.527,2.602,0.000,34.891
18784,3.946,0.000,1.356,0.679,5.527,2.602,0.000,34.859
18838,3.946,0.000,1.356,0.679,5.527,2.602,0.000,34.903
18892,3.946,0.000,1.356,0.679,5.527,2.602,0.000,34.922
18946,3.947,0.000,1.356,0.679,5.527,2.602,0.000,34.901
19000,3.946,0.000,1.356,0.679,5.527,2.602,0.000,34.891
19054,3.946,0.000,1.356,0.679,5.527,2.602,0.000,34.891
19108,3.947,0.000,1.356,0.679,5.527,2.602,0.000,34.893
19162,3.946,0.000,1.356,0.679,5.527,2.602,0.000,34.902
19216,3.947,0.000,1.356,0.679,5.527,2.602,0.000,34.856
19270,3.947,0.000,1.356,0.679,5.527,2.602,0.000,34.876
19324,3.947,0.000,1.356,0.679,5.527,2.602,0.000,34.870
19378,3.947,0.000,1.356,0.679,5.527,2.602,0.000,34.876
19432,3.947,0.000,1.356,0.679,5.527,2.602,0.000,34.890
19486,3.947,0.000,1.356,0.679,5.527,2.602,0.000,34.852
19540,3.947,0.000,1.356,0.679,5.527,2.602,0.000,34.841
19594,3.947,0.000,1.356,0.679,5.527,2.602,0.000,34.843
19648,3.947,0.000,1.356,0.679,5.527,2.602,0.000,34.876
19702,3.947,0.000,1.356,0.679,5.527,2.602,0.000,34.856
19756,3.947,0.000,1.356,0.679,5.527,2.602,0.000,34.863
19810,3.947,0.000,1.356,0.679,5.527,2.602,0.000,34.885
19864,3.947,0.000,1.356,0.679,5.527,2.602,0.000,34.893
19918,3.947,0.000,1.356,0.679,5.527,2.602,0.000,34.845
19972,3.947,0.000,1.356,0.679,5.527,2.602,0.000,34.919
20026,3.947,0.000,1.356,0.679,5.527,2.602,0.000,34.860
20080,3.947,0.000,1.356,0.679,5.527,2.602,0.000,34.891
20134,3.947,0.000,1.356,0.679,5.527,2.602,0.000,34.913
20188,3.947,0.000,1.356,0.679,5.527,2.602,0.000,34.891
20242,3.947,0.000,1.356,0.679,5.527,2.602,0.000,34.888
20294,3.934,0.000,1.356,0.687,5.527,2.634,0.000,34.926
20346,3.949,0.000,1.362,0.687,5.552,2.634,0.000,34.950
20399,3.731,-3.350,1.362,0.719,5.552,2.753,-0.001,35.090
20453,3.705,-3.350,1.362,0.769,5.552,2.939,0.000,35.337
20507,3.687,-3.350,1.362,0.819,5.552,3.125,0.000,35.606
20561,3.669,-3.350,1.362,0.869,5.552,3.310,0.000,35.755
20615,3.653,-3.350,1.362,0.920,5.552,3.494,0.000,35.995
20669,3.638,-3.350,1.362,0.970,5.552,3.677,0.000,36.251
20723,3.623,-3.350,1.362,1.020,5.552,3.860,0.000,36.439
20776,3.815,0.000,1.362,1.022,5.552,3.866,0.000,36.353
20830,3.825,0.000,1.362,1.022,5.552,3.866,0.000,36.240
20884,3.830,0.000,1.362,1.022,5.552,3.866,0.000,36.047
20938,3.832,0.000,1.362,1.022,5.552,3.866,0.000,35.932
20992,3.834,0.000,1.362,1.022,5.552,3.866,0.000,35.839
21046,3.835,0.000,1.362,1.022,5.552,3.866,0.000,35.740
21100,3.836,0.000,1.362,1.022,5.552,3.866,0.000,35.682
21154,3.837,0.000,1.362,1.022,5.552,3.866,0.000,35.645
21208,3.838,0.000,1.362,1.022,5.552,3.866,0.000,35.509
21262,3.839,0.000,1.362,1.022,5.552,3.866,0.000,35.472
21316,3.840,0.000,1.362,1.022,5.552,3.866,0.000,35.441
21370,3.842,0.000,1.362,1.022,5.552,3.866,0.000,35.426
21424,3.843,0.000,1.362,1.022,5.552,3.866,0.000,35.384
21478,3.845,0.000,1.362,1.022,5.552,3.866,0.000,35.331
21532,3.847,0.000,1.362,1.022,5.552,3.866,0.000,35.265
21586,3.849,0.000,1.362,1.022,5.552,3.866,0.000,35.229
21640,3.851,0.000,1.362,1.022,5.552,3.866,0.000,35.237
21694,3.854,0.000,1.362,1.022,5.552,3.866,0.000,35.171
21748,3.855,0.000,1.362,1.022,5.552,3.866,0.000,35.120
21802,3.856,0.000,1.362,1.022,5.552,3.866,0.000,35.091
21856,3.857,0.000,1.362,1.022,5.552,3.866,0.000,35.078
21910,3.858,0.000,1.362,1.022,5.552,3.866,0.000,35.068
21964,3.858,0.000,1.362,1.022,5.552,3.866,0.000,35.080
22018,3.859,0.000,1.362,1.022,5.552,3.866,0.000,35.022
22072,3.859,0.000,1.362,1.022,5.552,3.866,0.000,35.034
22126,3.859,0.000,1.362,1.022,5.552,3.866,0.000,34.965
22180,3.859,0.000,1.362,1.022,5.552,3.866,0.000,35.002
22234,3.860,0.000,1.362,1.022,5.552,3.866,0.000,34.959
22288,3.860,0.000,1.362,1.022,5.552,3.866,0.000,34.979
22342,3.860,0.000,1.362,1.022,5.552,3.866,0.000,34.930
22396,3.860,0.000,1.362,1.022,5.552,3.866,0.000,34.980
22450,3.860,0.000,1.362,1.022,5.552,3.866,0.000,34.958
22504,3.860,0.000,1.362,1.022,5.552,3.866,0.000,34.961
22558,3.860,0.000,1.362,1.022,5.552,3.866,0.000,34.940
22612,3.860,0.000,1.362,1.022,5.552,3.866,0.000,34.959
22666,3.860,0.000,1.362,1.022,5.552,3.866,0.000,34.934
22720,3.861,0.000,1.362,1.022,5.552,3.866,0.000,34.977
22774,3.861,0.000,1.362,1.022,5.552,3.866,0.000,34.947
22828,3.861,0.000,1.362,1.022,5.552,3.866,0.000,34.904
22882,3.861,0.000,1.362,1.022,5.552,3.866,0.000,35.061
22936,3.861,0.000,1.362,1.022,5.552,3.866,0.000,35.047
22990,3.861,0.000,1.362,1.022,5.552,3.866,0.000,34.996
23044,3.861,0.000,1.362,1.022,5.552,3.866,0.000,35.171
23098,3.861,0.000,1.362,1.022,5.552,3.866,0.000,35.098
23152,3.861,0.000,1.362,1.022,5.552,3.866,0.000,34.996
23206,3.861,0.000,1.362,1.022,5.552,3.866,0.000,34.990
23260,3.861,0.000,1.362,1.022,5.552,3.866,0.000,34.981
23314,3.861,0.000,1.362,1.022,5.552,3.866,0.000,34.971
23368,3.861,0.000,1.362,1.022,5.552,3.866,0.000,34.966
23422,3.861,0.000,1.362,1.022,5.552,3.866,0.000,34.993
23476,3.861,0.000,1.362,1.022,5.552,3.866,0.000,34.966
23530,3.861,0.000,1.362,1.022,5.552,3.866,0.000,34.950
23584,3.861,0.000,1.362,1.022,5.552,3.866,0.000,34.932
23638,3.861,0.000,1.362,1.022,5.552,3.866,0.000,34.959
23692,3.861,0.000,1.362,1.022,5.552,3.866,0.000,34.957
23746,3.861,0.000,1.362,1.022,5.552,3.866,0.000,34.964
23800,3.861,0.000,1.362,1.022,5.552,3.866,0.000,34.935
23854,3.861,0.000,1.362,1.022,5.552,3.866,0.000,34.975
23908,3.861,0.000,1.362,1.022,5.552,3.866,0.000,34.934
23962,3.861,0.000,1.362,1.022,5.552,3.866,0.000,34.906
24016,3.861,0.000,1.362,1.022,5.552,3.866,0.000,34.929
24070,3.861,0.000,1.362,1.022,5.552,3.866,0.000,34.883
24124,3.861,0.000,1.362,1.022,5.552,3.866,0.000,34.906
24178,3.861,0.000,1.362,1.022,5.552,3.866,0.000,34.891
24232,3.861,0.000,1.362,1.022,5.552,3.866,0.000,34.914
24286,3.861,0.000,1.362,1.022,5.552,3.866,0.000,34.928
24338,3.837,0.000,1.362,1.030,5.552,3.897,0.002,34.952
24390,3.868,0.000,1.369,1.030,5.577,3.898,-0.001,34.973
24443,3.662,-3.350,1.369,1.047,5.577,3.959,-0.001,35.002
24497,3.627,-3.350,1.369,1.097,5.577,4.142,0.000,35.255
24551,3.607,-3.350,1.369,1.148,5.577,4.324,-0.001,35.459
24605,3.588,-3.350,1.369,1.198,5.577,4.505,0.000,35.718
24659,3.569,-3.350,1.369,1.248,5.577,4.685,-0.001,35.954
24713,3.550,-3.350,1.369,1.298,5.577,4.863,0.000,36.095
24767,3.533,-3.350,1.369,1.349,5.577,5.041,0.000,36.372
24820,3.714,0.000,1.369,1.365,5.577,5.101,0.001,36.388
24874,3.730,0.000,1.369,1.365,5.577,5.101,0.000,36.207
24928,3.735,0.000,1.369,1.365,5.577,5.101,0.000,36.034
24982,3.738,0.000,1.369,1.365,5.577,5.101,0.000,35.927
25036,3.741,0.000,1.369,1.365,5.577,5.101,0.000,35.797
25090,3.742,0.000,1.369,1.365,5.577,5.101,0.000,35.710
25144,3.743,0.000,1.369,1.365,5.577,5.101,0.000,35.611
25198,3.744,0.000,1.369,1.365,5.577,5.101,0.000,35.592
25252,3.745,0.000,1.369,1.365,5.577,5.101,0.000,35.512
25306,3.745,0.000,1.369,1.365,5.577,5.101,0.000,35.463
25360,3.746,0.000,1.369,1.365,5.577,5.101,0.000,35.451
25414,3.746,0.000,1.369,1.365,5.577,5.101,0.000,35.363
25468,3.747,0.000,1.369,1.365,5.577,5.101,0.000,35.343
25522,3.747,0.000,1.369,1.365,5.577,5.101,0.000,35.314
25576,3.748,0.000,1.369,1.365,5.577,5.101,0.000,35.274
25630,3.748,0.000,1.369,1.365,5.577,5.101,0.000,35.272
25684,3.748,0.000,1.369,1.365,5.577,5.101,0.000,35.266
25738,3.749,0.000,1.369,1.365,5.577,5.101,0.000,35.208
25792,3.749,0.000,1.369,1.365,5.577,5.101,0.000,35.170
25846,3.750,0.000,1.369,1.365,5.577,5.101,0.000,35.209
25900,3.750,0.000,1.369,1.365,5.577,5.101,0.000,35.170
25954,3.751,0.000,1.369,1.365,5.577,5.101,0.000,35.136
26008,3.751,0.000,1.369,1.365,5.577,5.101,0.000,35.094
26062,3.752,0.000,1.369,1.365,5.577,5.101,0.000,35.095
26116,3.752,0.000,1.369,1.365,5.577,5.101,0.000,35.109
26170,3.753,0.000,1.369,1.365,5.577,5.101,0.000,35.120
26224,3.754,0.000,1.369,1.365,5.577,5.101,0.000,35.063
26278,3.755,0.000,1.369,1.365,5.577,5.101,0.000,35.048
26332,3.756,0.000,1.369,1.365,5.577,5.101,0.000,35.015
26386,3.756,0.000,1.369,1.365,5.577,5.101,0.000,35.092
26440,3.758,0.000,1.369,1.365,5.577,5.101,0.000,35.033
26494,3.759,0.000,1.369,1.365,5.577,5.101,0.000,35.017
26548,3.760,0.000,1.369,1.365,5.577,5.101,0.000,35.030
26602,3.761,0.000,1.369,1.365,5.577,5.101,0.000,34.976
26656,3.762,0.000,1.369,1.365,5.577,5.101,0.000,35.015
26710,3.763,0.000,1.369,1.365,5.577,5.101,0.000,35.041
26764,3.763,0.000,1.369,1.365,5.577,5.101,0.000,34.994
26818,3.764,0.000,1.369,1.365,5.577,5.101,0.000,34.954
26872,3.765,0.000,1.369,1.365,5.577,5.101,0.000,34.963
26926,3.766,0.000,1.369,1.365,5.577,5.101,0.000,34.911
26980,3.766,0.000,1.369,1.365,5.577,5.101,0.000,34.890
27034,3.766,0.000,1.369,1.365,5.577,5.101,0.000,34.918
27088,3.767,0.000,1.369,1.365,5.577,5.101,0.000,34.897
27142,3.767,0.000,1.369,1.365,5.577,5.101,0.000,34.925
27196,3.768,0.000,1.369,1.365,5.577,5.101,0.000,34.910
27250,3.768,0.000,1.369,1.365,5.577,5.101,0.000,34.904
27304,3.768,0.000,1.369,1.365,5.577,5.101,0.000,34.900
27358,3.768,0.000,1.369,1.365,5.577,5.101,0.000,34.921
27412,3.769,0.000,1.369,1.365,5.577,5.101,0.000,34.912
27466,3.769,0.000,1.369,1.365,5.577,5.101,0.000,34.907
27520,3.769,0.000,1.369,1.365,5.577,5.101,0.000,34.906
27574,3.769,0.000,1.369,1.365,5.577,5.101,0.000,34.933
27628,3.769,0.000,1.369,1.365,5.577,5.101,0.000,34.897
27682,3.769,0.000,1.369,1.365,5.577,5.101,0.000,34.890
27736,3.769,0.000,1.369,1.365,5.577,5.101,0.000,34.880
27790,3.770,0.000,1.369,1.365,5.577,5.101,0.000,34.947
27844,3.770,0.000,1.369,1.365,5.577,5.101,0.000,34.885
27898,3.770,0.000,1.369,1.365,5.577,5.101,0.000,34.909
27952,3.770,0.000,1.369,1.365,5.577,5.101,0.000,34.922
28006,3.770,0.000,1.369,1.365,5.577,5.101,0.000,34.906
28060,3.770,0.000,1.369,1.365,5.577,5.101,0.000,34.883
28114,3.770,0.000,1.369,1.365,5.577,5.101,0.000,34.898
28168,3.770,0.000,1.369,1.365,5.577,5.101,0.000,34.929
28222,3.770,0.000,1.369,1.365,5.577,5.101,0.000,34.888
28276,3.770,0.000,1.369,1.365,5.577,5.101,0.000,34.910
28330,3.770,0.000,1.369,1.365,5.577,5.101,0.000,34.855
28384,3.770,0.000,1.369,1.365,5.577,5.101,0.000,34.884
28436,3.758,0.000,1.369,1.374,5.577,5.131,0.000,34.921
28488,3.608,-3.350,1.375,1.376,5.601,5.138,-0.006,34.951
28542,3.542,-3.350,1.375,1.426,5.601,5.317,-0.001,35.158
28596,3.521,-3.350,1.375,1.476,5.601,5.494,0.000,35.387
28650,3.502,-3.350,1.375,1.526,5.601,5.671,0.000,35.564
28704,3.484,-3.350,1.375,1.577,5.601,5.846,0.000,35.733
28758,3.466,-3.350,1.375,1.627,5.601,6.021,0.000,35.943
28812,3.450,-3.350,1.375,1.677,5.601,6.194,0.000,36.110
28865,3.619,0.000,1.375,1.709,5.601,6.303,0.001,36.256
28919,3.640,0.000,1.375,1.709,5.601,6.303,0.000,36.039
28973,3.647,0.000,1.375,1.709,5.601,6.303,0.000,35.828
29027,3.651,0.000,1.375,1.709,5.601,6.303,0.000,35.738
29081,3.653,0.000,1.375,1.709,5.601,6.303,0.000,35.608
29135,3.654,0.000,1.375,1.709,5.601,6.303,0.000,35.474
29189,3.655,0.000,1.375,1.709,5.601,6.303,0.000,35.379
29243,3.656,0.000,1.375,1.709,5.601,6.303,0.000,35.370
29297,3.657,0.000,1.375,1.709,5.601,6.303,0.000,35.275
29351,3.657,0.000,1.375,1.709,5.601,6.303,0.000,35.248
29405,3.658,0.000,1.375,1.709,5.601,6.303,0.000,35.215
29459,3.658,0.000,1.375,1.709,5.601,6.303,0.000,35.162
29513,3.658,0.000,1.375,1.709,5.601,6.303,0.000,35.111
29567,3.659,0.000,1.375,1.709,5.601,6.303,0.000,35.124
29621,3.659,0.000,1.375,1.709,5.601,6.303,0.000,35.117
29675,3.659,0.000,1.375,1.709,5.601,6.303,0.000,35.102
29729,3.659,0.000,1.375,1.709,5.601,6.303,0.000,35.044
29783,3.660,0.000,1.375,1.709,5.601,6.303,0.000,35.043
29837,3.660,0.000,1.375,1.709,5.601,6.303,0.000,35.014
29891,3.660,0.000,1.375,1.709,5.601,6.303,0.000,34.976
29945,3.660,0.000,1.375,1.709,5.601,6.303,0.000,34.981
29999,3.660,0.000,1.375,1.709,5.601,6.303,0.000,35.003
30053,3.660,0.000,1.375,1.709,5.601,6.303,0.000,35.010
30107,3.660,0.000,1.375,1.709,5.601,6.303,0.000,34.970
30161,3.661,0.000,1.375,1.709,5.601,6.303,0.000,34.954
30215,3.661,0.000,1.375,1.709,5.601,6.303,0.000,34.967
30269,3.661,0.000,1.375,1.709,5.601,6.303,0.000,34.968
30323,3.661,0.000,1.375,1.709,5.601,6.303,0.000,34.978
30377,3.661,0.000,1.375,1.709,5.601,6.303,0.000,34.944
30431,3.661,0.000,1.375,1.709,5.601,6.303,0.000,34.941
30485,3.661,0.000,1.375,1.709,5.601,6.303,0.000,34.925
30539,3.661,0.000,1.375,1.709,5.601,6.303,0.000,34.968
30593,3.661,0.000,1.375,1.709,5.601,6.303,0.000,34.928
30647,3.662,0.000,1.375,1.709,5.601,6.303,0.000,34.936
30701,3.661,0.000,1.375,1.709,5.601,6.303,0.000,34.956
30755,3.662,0.000,1.375,1.709,5.601,6.303,0.000,34.944
30809,3.662,0.000,1.375,1.709,5.601,6.303,0.000,34.912
30863,3.662,0.000,1.375,1.709,5.601,6.303,0.000,34.969
30917,3.662,0.000,1.375,1.709,5.601,6.303,0.000,34.942
30971,3.662,0.000,1.375,1.709,5.601,6.303,0.000,34.884
31025,3.662,0.000,1.375,1.709,5.601,6.303,0.000,34.945
31079,3.662,0.000,1.375,1.709,5.601,6.303,0.000,34.919
31133,3.662,0.000,1.375,1.709,5.601,6.303,0.000,34.926
31187,3.662,0.000,1.375,1.709,5.601,6.303,0.000,34.914
31241,3.662,0.000,1.375,1.709,5.601,6.303,0.000,34.904
31295,3.662,0.000,1.375,1.709,5.601,6.303,0.000,34.898
31349,3.662,0.000,1.375,1.709,5.601,6.303,0.000,34.907
31403,3.662,0.000,1.375,1.709,5.601,6.303,0.000,34.931
31457,3.662,0.000,1.375,1.709,5.601,6.303,0.000,34.913
31511,3.662,0.000,1.375,1.709,5.601,6.303,0.000,34.889
31565,3.662,0.000,1.375,1.709,5.601,6.303,0.000,34.903
31619,3.662,0.000,1.375,1.709,5.601,6.303,0.000,34.906
31673,3.662,0.000,1.375,1.709,5.601,6.303,0.000,34.906
31727,3.662,0.000,1.375,1.709,5.601,6.303,0.000,34.897
31781,3.662,0.000,1.375,1.709,5.601,6.303,0.000,34.870
31835,3.662,0.000,1.375,1.709,5.601,6.303,0.000,34.861
31889,3.662,0.000,1.375,1.709,5.601,6.303,0.000,34.898
31943,3.662,0.000,1.375,1.709,5.601,6.303,0.000,34.841
31997,3.662,0.000,1.375,1.709,5.601,6.303,0.000,34.886
32051,3.662,0.000,1.375,1.709,5.601,6.303,0.000,34.874
32105,3.662,0.000,1.375,1.709,5.601,6.303,0.000,34.897
32159,3.663,0.000,1.375,1.709,5.601,6.303,0.000,34.906
32213,3.663,0.000,1.375,1.709,5.601,6.303,0.000,34.898
32267,3.663,0.000,1.375,1.709,5.601,6.303,0.000,34.911
32321,3.663,0.000,1.375,1.709,5.601,6.303,0.000,34.910
32375,3.663,0.000,1.375,1.709,5.601,6.303,0.000,34.852
32429,3.663,0.000,1.375,1.709,5.601,6.303,0.000,34.862
32481,3.653,0.000,1.375,1.717,5.601,6.333,0.000,34.906
32533,3.663,0.000,1.381,1.717,5.625,6.333,0.000,34.935
32586,3.456,-3.350,1.381,1.754,5.625,6.462,-0.001,34.984
32640,3.430,-3.350,1.381,1.805,5.625,6.635,0.000,35.300
32694,3.412,-3.350,1.381,1.855,5.625,6.807,0.000,35.584
32748,3.396,-3.350,1.381,1.905,5.625,6.978,0.000,35.865
32802,3.382,-3.350,1.381,1.955,5.625,7.149,0.000,36.134
32856,3.369,-3.350,1.381,2.006,5.625,7.318,0.000,36.366
32909,3.518,0.000,1.381,2.052,5.625,7.475,0.003,36.560
32963,3.563,0.000,1.381,2.052,5.625,7.475,0.000,36.358
33017,3.575,0.000,1.381,2.052,5.625,7.475,0.000,36.064
33071,3.581,0.000,1.381,2.052,5.625,7.475,0.000,35.904
33125,3.586,0.000,1.381,2.052,5.625,7.475,0.000,35.676
33179,3.589,0.000,1.381,2.052,5.625,7.475,0.000,35.565
33233,3.591,0.000,1.381,2.052,5.625,7.475,0.000,35.483
33287,3.592,0.000,1.381,2.052,5.625,7.475,0.000,35.344
33341,3.593,0.000,1.381,2.052,5.625,7.475,0.000,35.299
33395,3.593,0.000,1.381,2.052,5.625,7.475,0.000,35.211
33449,3.594,0.000,1.381,2.052,5.625,7.475,0.000,35.178
33503,3.594,0.000,1.381,2.052,5.625,7.475,0.000,35.154
33557,3.594,0.000,1.381,2.052,5.625,7.475,0.000,35.071
33611,3.595,0.000,1.381,2.052,5.625,7.475,0.000,35.090
33665,3.595,0.000,1.381,2.052,5.625,7.475,0.000,35.059
33719,3.595,0.000,1.381,2.052,5.625,7.475,0.000,34.963
33773,3.595,0.000,1.381,2.052,5.625,7.475,0.000,35.017
33827,3.596,0.000,1.381,2.052,5.625,7.475,0.000,35.126
33881,3.596,0.000,1.381,2.052,5.625,7.475,0.000,35.094
33935,3.596,0.000,1.381,2.052,5.625,7.475,0.000,35.035
33989,3.596,0.000,1.381,2.052,5.625,7.475,0.000,35.001
34043,3.596,0.000,1.381,2.052,5.625,7.475,0.000,35.032
34097,3.596,0.000,1.381,2.052,5.625,7.475,0.000,35.003
34151,3.597,0.000,1.381,2.052,5.625,7.475,0.000,34.993
34205,3.597,0.000,1.381,2.052,5.625,7.475,0.000,35.035
34259,3.597,0.000,1.381,2.052,5.625,7.475,0.000,35.024
34313,3.597,0.000,1.381,2.052,5.625,7.475,0.000,34.965
34367,3.597,0.000,1.381,2.052,5.625,7.475,0.000,34.964
34421,3.597,0.000,1.381,2.052,5.625,7.475,0.000,35.040
34475,3.597,0.000,1.381,2.052,5.625,7.475,0.000,34.993
34529,3.597,0.000,1.381,2.052,5.625,7.475,0.000,34.996
34583,3.598,0.000,1.381,2.052,5.625,7.475,0.000,34.985
34637,3.597,0.000,1.381,2.052,5.625,7.475,0.000,35.057
34691,3.598,0.000,1.381,2.052,5.625,7.475,0.000,34.998
34745,3.598,0.000,1.381,2.052,5.625,7.475,0.000,35.020
34799,3.598,0.000,1.381,2.052,5.625,7.475,0.000,35.057
34853,3.598,0.000,1.381,2.052,5.625,7.475,0.000,35.090
34907,3.598,0.000,1.381,2.052,5.625,7.475,0.000,35.057
34961,3.598,0.000,1.381,2.052,5.625,7.475,0.000,35.032
35015,3.598,0.000,1.381,2.052,5.625,7.475,0.000,35.058
35069,3.598,0.000,1.381,2.052,5.625,7.475,0.000,35.064
35123,3.598,0.000,1.381,2.052,5.625,7.475,0.000,35.043
35177,3.598,0.000,1.381,2.052,5.625,7.475,0.000,35.047
35231,3.598,0.000,1.381,2.052,5.625,7.475,0.000,35.063
35285,3.598,0.000,1.381,2.052,5.625,7.475,0.000,35.056
35339,3.598,0.000,1.381,2.052,5.625,7.475,0.000,35.086
35393,3.598,0.000,1.381,2.052,5.625,7.475,0.000,35.065
35447,3.598,0.000,1.381,2.052,5.625,7.475,0.000,35.085
35501,3.598,0.000,1.381,2.052,5.625,7.475,0.000,35.099
35555,3.598,0.000,1.381,2.052,5.625,7.475,0.000,35.126
35609,3.599,0.000,1.381,2.052,5.625,7.475,0.000,35.071
35663,3.598,0.000,1.381,2.052,5.625,7.475,0.000,35.063
35717,3.599,0.000,1.381,2.052,5.625,7.475,0.000,35.085
35771,3.599,0.000,1.381,2.052,5.625,7.475,0.000,35.090
35825,3.599,0.000,1.381,2.052,5.625,7.475,0.000,35.061
35879,3.599,0.000,1.381,2.052,5.625,7.475,0.000,35.067
35933,3.599,0.000,1.381,2.052,5.625,7.475,0.000,35.068
35987,3.599,0.000,1.381,2.052,5.625,7.475,0.000,35.094
36041,3.599,0.000,1.381,2.052,5.625,7.475,0.000,35.081
36095,3.599,0.000,1.381,2.052,5.625,7.475,0.000,35.089
36149,3.599,0.000,1.381,2.052,5.625,7.475,0.000,35.061
36203,3.599,0.000,1.381,2.052,5.625,7.475,0.000,35.070
36257,3.599,0.000,1.381,2.052,5.625,7.475,0.000,35.060
36311,3.599,0.000,1.381,2.052,5.625,7.475,0.000,35.078
36365,3.599,0.000,1.381,2.052,5.625,7.475,0.000,35.080
36419,3.599,0.000,1.381,2.052,5.625,7.475,0.000,35.108
36473,3.599,0.000,1.381,2.052,5.625,7.475,0.000,35.060
36525,3.586,0.000,1.381,2.061,5.625,7.504,0.000,35.092
36577,3.602,0.000,1.387,2.061,5.648,7.504,0.000,35.130
36630,3.402,-3.350,1.387,2.083,5.648,7.580,-0.001,35.214
36684,3.364,-3.350,1.387,2.133,5.648,7.750,0.000,35.563
36738,3.340,-3.350,1.387,2.183,5.648,7.918,0.000,35.997
36792,3.320,-3.350,1.387,2.234,5.648,8.086,0.000,36.315
36846,3.304,-3.350,1.387,2.284,5.648,8.252,0.000,36.632
36900,3.288,-3.350,1.387,2.334,5.648,8.418,0.000,36.911
36954,3.274,-3.350,1.387,2.384,5.648,8.583,0.000,37.171
37008,3.475,0.000,1.387,2.396,5.648,8.619,0.000,37.116
37062,3.496,0.000,1.387,2.396,5.648,8.619,0.000,36.820
37116,3.509,0.000,1.387,2.396,5.648,8.619,0.000,36.480
37170,3.516,0.000,1.387,2.396,5.648,8.619,0.000,36.250
37224,3.520,0.000,1.387,2.396,5.648,8.619,0.000,36.099
37278,3.523,0.000,1.387,2.396,5.648,8.619,0.000,35.872
37332,3.526,0.000,1.387,2.396,5.648,8.619,0.000,35.750
37386,3.528,0.000,1.387,2.396,5.648,8.619,0.000,35.652
37440,3.530,0.000,1.387,2.396,5.648,8.619,0.000,35.570
37494,3.532,0.000,1.387,2.396,5.648,8.619,0.000,35.535
37548,3.533,0.000,1.387,2.396,5.648,8.619,0.000,35.450
37602,3.535,0.000,1.387,2.396,5.648,8.619,0.000,35.420
37656,3.535,0.000,1.387,2.396,5.648,8.619,0.000,35.321
37710,3.536,0.000,1.387,2.396,5.648,8.619,0.000,35.306
37764,3.537,0.000,1.387,2.396,5.648,8.619,0.000,35.313
37818,3.537,0.000,1.387,2.396,5.648,8.619,0.000,35.250
37872,3.538,0.000,1.387,2.396,5.648,8.619,0.000,35.218
37926,3.538,0.000,1.387,2.396,5.648,8.619,0.000,35.191
37980,3.539,0.000,1.387,2.396,5.648,8.619,0.000,35.170
38034,3.539,0.000,1.387,2.396,5.648,8.619,0.000,35.163
38088,3.539,0.000,1.387,2.396,5.648,8.619,0.000,35.114
38142,3.540,0.000,1.387,2.396,5.648,8.619,0.000,35.108
38196,3.540,0.000,1.387,2.396,5.648,8.619,0.000,35.078
38250,3.540,0.000,1.387,2.396,5.648,8.619,0.000,35.130
38304,3.540,0.000,1.387,2.396,5.648,8.619,0.000,35.093
38358,3.540,0.000,1.387,2.396,5.648,8.619,0.000,35.105
38412,3.541,0.000,1.387,2.396,5.648,8.619,0.000,35.144
38466,3.541,0.000,1.387,2.396,5.648,8.619,0.000,35.094
38520,3.541,0.000,1.387,2.396,5.648,8.619,0.000,35.102
38574,3.541,0.000,1.387,2.396,5.648,8.619,0.000,35.063
38628,3.541,0.000,1.387,2.396,5.648,8.619,0.000,35.079
38682,3.541,0.000,1.387,2.396,5.648,8.619,0.000,35.053
38736,3.541,0.000,1.387,2.396,5.648,8.619,0.000,35.069
38790,3.541,0.000,1.387,2.396,5.648,8.619,0.000,35.048
38844,3.542,0.000,1.387,2.396,5.648,8.619,0.000,35.065
38898,3.542,0.000,1.387,2.396,5.648,8.619,0.000,35.097
38952,3.542,0.000,1.387,2.396,5.648,8.619,0.000,35.042
39006,3.542,0.000,1.387,2.396,5.648,8.619,0.000,35.028
39060,3.542,0.000,1.387,2.396,5.648,8.619,0.000,35.064
39114,3.542,0.000,1.387,2.396,5.648,8.619,0.000,35.047
39168,3.542,0.000,1.387,2.396,5.648,8.619,0.000,35.056
39222,3.542,0.000,1.387,2.396,5.648,8.619,0.000,35.049
39276,3.542,0.000,1.387,2.396,5.648,8.619,0.000,35.071
39330,3.542,0.000,1.387,2.396,5.648,8.619,0.000,35.021
39384,3.542,0.000,1.387,2.396,5.648,8.619,0.000,35.050
39438,3.542,0.000,1.387,2.396,5.648,8.619,0.000,35.045
39492,3.543,0.000,1.387,2.396,5.648,8.619,0.000,35.047
39546,3.543,0.000,1.387,2.396,5.648,8.619,0.000,35.075
39600,3.543,0.000,1.387,2.396,5.648,8.619,0.000,35.071
39654,3.543,0.000,1.387,2.396,5.648,8.619,0.000,35.064
39708,3.543,0.000,1.387,2.396,5.648,8.619,0.000,35.062
39762,3.543,0.000,1.387,2.396,5.648,8.619,0.000,35.032
39816,3.543,0.000,1.387,2.396,5.648,8.619,0.000,35.049
39870,3.543,0.000,1.387,2.396,5.648,8.619,0.000,35.051
39924,3.543,0.000,1.387,2.396,5.648,8.619,0.000,35.059
39978,3.543,0.000,1.387,2.396,5.648,8.619,0.000,35.044
40032,3.543,0.000,1.387,2.396,5.648,8.619,0.000,35.057
40086,3.543,0.000,1.387,2.396,5.648,8.619,0.000,35.046
40140,3.543,0.000,1.387,2.396,5.648,8.619,0.000,35.013
40194,3.543,0.000,1.387,2.396,5.648,8.619,0.000,35.005
40248,3.543,0.000,1.387,2.396,5.648,8.619,0.000,35.053
40302,3.543,0.000,1.387,2.396,5.648,8.619,0.000,35.062
40356,3.544,0.000,1.387,2.396,5.648,8.619,0.000,35.050
40410,3.543,0.000,1.387,2.396,5.648,8.619,0.000,35.077
40464,3.544,0.000,1.387,2.396,5.648,8.619,0.000,35.020
40518,3.544,0.000,1.387,2.396,5.648,8.619,0.000,35.009
40571,3.391,-3.000,1.387,2.399,5.648,8.631,-0.003,35.027
40623,3.653,2.250,1.391,2.404,5.661,8.648,0.002,35.096
40675,3.363,-3.350,1.394,2.411,5.671,8.673,-0.002,35.155
40729,3.303,-3.350,1.394,2.462,5.671,8.840,-0.001,35.500
40783,3.267,-3.350,1.394,2.512,5.671,9.005,-0.001,35.922
40837,3.240,-3.350,1.394,2.562,5.671,9.169,-0.001,36.371
40891,3.218,-3.350,1.394,2.613,5.671,9.331,0.000,36.752
40945,3.196,-3.350,1.394,2.663,5.671,9.492,0.000,37.120
40999,3.174,-3.350,1.394,2.713,5.671,9.652,0.000,37.410
41052,3.379,0.000,1.394,2.739,5.671,9.735,0.001,37.552
41106,3.397,0.000,1.394,2.739,5.671,9.735,0.000,37.231
41160,3.405,0.000,1.394,2.739,5.671,9.735,0.000,36.907
41214,3.414,0.000,1.394,2.739,5.671,9.735,0.000,36.665
41268,3.421,0.000,1.394,2.739,5.671,9.735,0.000,36.461
41322,3.426,0.000,1.394,2.739,5.671,9.735,0.000,36.295
41376,3.430,0.000,1.394,2.739,5.671,9.735,0.000,36.066
41430,3.432,0.000,1.394,2.739,5.671,9.735,0.000,35.940
41484,3.435,0.000,1.394,2.739,5.671,9.735,0.000,35.815
41538,3.436,0.000,1.394,2.739,5.671,9.735,0.000,35.702
41592,3.438,0.000,1.394,2.739,5.671,9.735,0.000,35.588
41646,3.439,0.000,1.394,2.739,5.671,9.735,0.000,35.537
41700,3.440,0.000,1.394,2.739,5.671,9.735,0.000,35.434
41754,3.440,0.000,1.394,2.739,5.671,9.735,0.000,35.367
41808,3.441,0.000,1.394,2.739,5.671,9.735,0.000,35.340
41862,3.441,0.000,1.394,2.739,5.671,9.735,0.000,35.346
41916,3.442,0.000,1.394,2.739,5.671,9.735,0.000,35.280
41970,3.442,0.000,1.394,2.739,5.671,9.735,0.000,35.220
42024,3.442,0.000,1.394,2.739,5.671,9.735,0.000,35.234
42078,3.443,0.000,1.394,2.739,5.671,9.735,0.000,35.149
42132,3.443,0.000,1.394,2.739,5.671,9.735,0.000,35.197
42186,3.443,0.000,1.394,2.739,5.671,9.735,0.000,35.164
42240,3.444,0.000,1.394,2.739,5.671,9.735,0.000,35.123
42294,3.444,0.000,1.394,2.739,5.671,9.735,0.000,35.095
42348,3.444,0.000,1.394,2.739,5.671,9.735,0.000,35.082
42402,3.444,0.000,1.394,2.739,5.671,9.735,0.000,35.089
42456,3.444,0.000,1.394,2.739,5.671,9.735,0.000,35.072
42510,3.444,0.000,1.394,2.739,5.671,9.735,0.000,35.091
42564,3.444,0.000,1.394,2.739,5.671,9.735,0.000,35.090
42618,3.444,0.000,1.394,2.739,5.671,9.735,0.000,35.075
42672,3.444,0.000,1.394,2.739,5.671,9.735,0.000,35.088
42726,3.445,0.000,1.394,2.739,5.671,9.735,0.000,35.030
42780,3.444,0.000,1.394,2.739,5.671,9.735,0.000,35.048
42834,3.445,0.000,1.394,2.739,5.671,9.735,0.000,35.030
42888,3.445,0.000,1.394,2.739,5.671,9.735,0.000,35.046
42942,3.445,0.000,1.394,2.739,5.671,9.735,0.000,35.029
42996,3.445,0.000,1.394,2.739,5.671,9.735,0.000,34.985
43050,3.445,0.000,1.394,2.739,5.671,9.735,0.000,35.039
43104,3.445,0.000,1.394,2.739,5.671,9.735,0.000,35.006
43158,3.445,0.000,1.394,2.739,5.671,9.735,0.000,34.991
43212,3.445,0.000,1.394,2.739,5.671,9.735,0.000,35.035
43266,3.445,0.000,1.394,2.739,5.671,9.735,0.000,35.011
43320,3.445,0.000,1.394,2.739,5.671,9.735,0.000,35.005
43374,3.445,0.000,1.394,2.739,5.671,9.735,0.000,35.015
43428,3.445,0.000,1.394,2.739,5.671,9.735,0.000,34.968
43482,3.445,0.000,1.394,2.739,5.671,9.735,0.000,34.953
43536,3.445,0.000,1.394,2.739,5.671,9.735,0.000,34.994
43590,3.445,0.000,1.394,2.739,5.671,9.735,0.000,35.000
43644,3.446,0.000,1.394,2.739,5.671,9.735,0.000,35.008
43698,3.446,0.000,1.394,2.739,5.671,9.735,0.000,34.998
43752,3.446,0.000,1.394,2.739,5.671,9.735,0.000,35.041
43806,3.446,0.000,1.394,2.739,5.671,9.735,0.000,35.037
43860,3.446,0.000,1.394,2.739,5.671,9.735,0.000,34.980
43914,3.446,0.000,1.394,2.739,5.671,9.735,0.000,34.969
43968,3.446,0.000,1.394,2.739,5.671,9.735,0.000,34.947
44022,3.446,0.000,1.394,2.739,5.671,9.735,0.000,34.988
44076,3.446,0.000,1.394,2.739,5.671,9.735,0.000,35.018
44130,3.446,0.000,1.394,2.739,5.671,9.735,0.000,34.980
44184,3.446,0.000,1.394,2.739,5.671,9.735,0.000,34.971
44238,3.446,0.000,1.394,2.739,5.671,9.735,0.000,34.965
44292,3.446,0.000,1.394,2.739,5.671,9.735,0.000,34.998
44346,3.446,0.000,1.394,2.739,5.671,9.735,0.000,34.986
44400,3.446,0.000,1.394,2.739,5.671,9.735,0.000,35.017
44454,3.446,0.000,1.394,2.739,5.671,9.735,0.000,35.001
44508,3.446,0.000,1.394,2.739,5.671,9.735,0.000,34.961
44562,3.446,0.000,1.394,2.739,5.671,9.735,0.000,34.987
44616,3.446,0.000,1.394,2.739,5.671,9.735,0.000,34.928
44668,3.435,0.000,1.394,2.747,5.671,9.762,0.000,35.030
44720,3.447,0.000,1.400,2.747,5.693,9.762,0.000,35.023
44773,3.177,-3.350,1.400,2.790,5.693,9.900,-0.001,35.373
44827,3.130,-3.350,1.400,2.841,5.693,10.058,-0.001,35.924
44881,3.089,-3.350,1.400,2.891,5.693,10.214,-0.001,36.508
44935,3.044,-3.350,1.400,2.941,5.693,10.368,-0.001,36.992
44989,2.992,-3.350,1.400,2.991,5.693,10.520,-0.001,37.552
45043,2.930,-3.350,1.400,3.042,5.693,10.669,-0.001,38.083
45096,3.231,0.000,1.400,3.083,5.693,10.788,0.004,38.630
45150,3.294,0.000,1.400,3.083,5.693,10.788,0.001,38.154
45204,3.310,0.000,1.400,3.083,5.693,10.788,0.000,37.652
45258,3.316,0.000,1.400,3.083,5.693,10.788,0.000,37.238
45312,3.319,0.000,1.400,3.083,5.693,10.788,0.000,36.892
45366,3.321,0.000,1.400,3.083,5.693,10.788,0.000,36.588
45420,3.322,0.000,1.400,3.083,5.693,10.788,0.000,36.375
45474,3.323,0.000,1.400,3.083,5.693,10.788,0.000,36.129
45528,3.324,0.000,1.400,3.083,5.693,10.788,0.000,35.977
45582,3.325,0.000,1.400,3.083,5.693,10.788,0.000,35.861
45636,3.325,0.000,1.400,3.083,5.693,10.788,0.000,35.738
45690,3.325,0.000,1.400,3.083,5.693,10.788,0.000,35.641
45744,3.326,0.000,1.400,3.083,5.693,10.788,0.000,35.567
45798,3.326,0.000,1.400,3.083,5.693,10.788,0.000,35.422
45852,3.326,0.000,1.400,3.083,5.693,10.788,0.000,35.373
45906,3.327,0.000,1.400,3.083,5.693,10.788,0.000,35.346
45960,3.327,0.000,1.400,3.083,5.693,10.788,0.000,35.279
46014,3.327,0.000,1.400,3.083,5.693,10.788,0.000,35.192
46068,3.327,0.000,1.400,3.083,5.693,10.788,0.000,35.183
46122,3.328,0.000,1.400,3.083,5.693,10.788,0.000,35.144
46176,3.328,0.000,1.400,3.083,5.693,10.788,0.000,35.133
46230,3.328,0.000,1.400,3.083,5.693,10.788,0.000,35.104
46284,3.328,0.000,1.400,3.083,5.693,10.788,0.000,35.062
46338,3.328,0.000,1.400,3.083,5.693,10.788,0.000,35.026
46392,3.328,0.000,1.400,3.083,5.693,10.788,0.000,35.048
46446,3.329,0.000,1.400,3.083,5.693,10.788,0.000,35.020
46500,3.329,0.000,1.400,3.083,5.693,10.788,0.000,35.010
46554,3.329,0.000,1.400,3.083,5.693,10.788,0.000,34.997
46608,3.329,0.000,1.400,3.083,5.693,10.788,0.000,35.007
46662,3.329,0.000,1.400,3.083,5.693,10.788,0.000,35.010
46716,3.329,0.000,1.400,3.083,5.693,10.788,0.000,34.962
46770,3.329,0.000,1.400,3.083,5.693,10.788,0.000,34.998
46824,3.329,0.000,1.400,3.083,5.693,10.788,0.000,34.925
46878,3.330,0.000,1.400,3.083,5.693,10.788,0.000,34.945
46932,3.330,0.000,1.400,3.083,5.693,10.788,0.000,34.950
46986,3.330,0.000,1.400,3.083,5.693,10.788,0.000,34.973
47040,3.330,0.000,1.400,3.083,5.693,10.788,0.000,34.935
47094,3.330,0.000,1.400,3.083,5.693,10.788,0.000,34.967
47148,3.330,0.000,1.400,3.083,5.693,10.788,0.000,34.924
47202,3.330,0.000,1.400,3.083,5.693,10.788,0.000,34.940
47256,3.330,0.000,1.400,3.083,5.693,10.788,0.000,34.947
47310,3.330,0.000,1.400,3.083,5.693,10.788,0.000,34.927
47364,3.330,0.000,1.400,3.083,5.693,10.788,0.000,34.970
47418,3.330,0.000,1.400,3.083,5.693,10.788,0.000,34.942
47472,3.330,0.000,1.400,3.083,5.693,10.788,0.000,34.930
47526,3.330,0.000,1.400,3.083,5.693,10.788,0.000,34.866
47580,3.331,0.000,1.400,3.083,5.693,10.788,0.000,34.966
47634,3.330,0.000,1.400,3.083,5.693,10.788,0.000,34.943
47688,3.331,0.000,1.400,3.083,5.693,10.788,0.000,34.941
47742,3.331,0.000,1.400,3.083,5.693,10.788,0.000,34.883
47796,3.331,0.000,1.400,3.083,5.693,10.788,0.000,34.922
47850,3.331,0.000,1.400,3.083,5.693,10.788,0.000,34.900
47904,3.331,0.000,1.400,3.083,5.693,10.788,0.000,34.889
47958,3.331,0.000,1.400,3.083,5.693,10.788,0.000,34.938
48012,3.331,0.000,1.400,3.083,5.693,10.788,0.000,34.877
48066,3.331,0.000,1.400,3.083,5.693,10.788,0.000,34.968
48120,3.331,0.000,1.400,3.083,5.693,10.788,0.000,34.885
48174,3.331,0.000,1.400,3.083,5.693,10.788,0.000,34.918
48228,3.331,0.000,1.400,3.083,5.693,10.788,0.000,34.944
48282,3.331,0.000,1.400,3.083,5.693,10.788,0.000,34.978
48336,3.331,0.000,1.400,3.083,5.693,10.788,0.000,34.909
48390,3.331,0.000,1.400,3.083,5.693,10.788,0.000,34.890
48444,3.331,0.000,1.400,3.083,5.693,10.788,0.000,34.950
48498,3.331,0.000,1.400,3.083,5.693,10.788,0.000,34.943
48552,3.332,0.000,1.400,3.083,5.693,10.788,0.000,34.964
48606,3.332,0.000,1.400,3.083,5.693,10.788,0.000,34.916
48660,3.332,0.000,1.400,3.083,5.693,10.788,0.000,34.888
48712,3.308,0.000,1.400,3.091,5.693,10.813,0.001,35.051
48765,3.336,0.000,1.406,3.091,5.715,10.813,0.000,35.108
48818,2.818,-3.350,1.406,3.119,5.715,10.894,-0.005,35.486
48872,2.600,-3.350,1.406,3.169,5.715,11.030,-0.004,36.874
48898,2.492,-3.350,1.406,3.193,5.715,11.092,-0.004,37.641