File: data/T35/HPPC/4.csv
time_s,voltage_v,current_a,chargecapacity_ah,dischargecapacity_ah,charge_energy_wh,discharge_energy_wh,voltagedot_v_per_s,temp_degc
1,3.772,0.000,0.000,0.000,0.000,0.000,0.000,35.101
56,3.772,0.000,0.000,0.000,0.000,0.000,0.000,35.128
111,3.772,0.000,0.000,0.000,0.000,0.000,0.000,35.116
166,3.772,0.000,0.000,0.000,0.000,0.000,0.000,35.155
221,3.772,0.000,0.000,0.000,0.000,0.000,0.000,35.127
276,3.772,0.000,0.000,0.000,0.000,0.000,0.000,35.076
331,3.772,0.000,0.000,0.000,0.000,0.000,0.000,35.108
386,3.772,0.000,0.000,0.000,0.000,0.000,0.000,35.104
441,3.772,0.000,0.000,0.000,0.000,0.000,0.000,35.126
496,3.772,0.000,0.000,0.000,0.000,0.000,0.000,35.099
551,3.772,0.000,0.000,0.000,0.000,0.000,0.000,35.085
606,3.772,0.000,0.000,0.000,0.000,0.000,0.000,35.112
661,3.772,0.000,0.000,0.000,0.000,0.000,0.000,35.107
716,3.772,0.000,0.000,0.000,0.000,0.000,0.000,35.094
771,3.772,0.000,0.000,0.000,0.000,0.000,0.000,35.136
826,3.772,0.000,0.000,0.000,0.000,0.000,0.000,35.104
881,3.772,0.000,0.000,0.000,0.000,0.000,0.000,35.165
936,3.772,0.000,0.000,0.000,0.000,0.000,0.000,35.201
991,3.772,0.000,0.000,0.000,0.000,0.000,0.000,35.152
1046,3.772,0.000,0.000,0.000,0.000,0.000,0.000,35.099
1101,3.772,0.000,0.000,0.000,0.000,0.000,0.000,35.163
1156,3.772,0.000,0.000,0.000,0.000,0.000,0.000,35.333
1211,3.772,0.000,0.000,0.000,0.000,0.000,0.000,35.280
1266,3.772,0.000,0.000,0.000,0.000,0.000,0.000,35.242
1321,3.772,0.000,0.000,0.000,0.000,0.000,0.000,35.292
1376,3.772,0.000,0.000,0.000,0.000,0.000,0.000,35.197
1431,3.772,0.000,0.000,0.000,0.000,0.000,0.000,35.199
1486,3.772,0.000,0.000,0.000,0.000,0.000,0.000,35.208
1541,3.772,0.000,0.000,0.000,0.000,0.000,0.000,35.246
1596,3.772,0.000,0.000,0.000,0.000,0.000,0.000,35.201
1651,3.772,0.000,0.000,0.000,0.000,0.000,0.000,35.163
1706,3.772,0.000,0.000,0.000,0.000,0.000,0.000,35.160
1761,3.772,0.000,0.000,0.000,0.000,0.000,0.000,35.150
1816,3.772,0.000,0.000,0.000,0.000,0.000,0.000,35.137
1871,3.772,0.000,0.000,0.000,0.000,0.000,0.000,35.157
1926,3.772,0.000,0.000,0.000,0.000,0.000,0.000,35.124
1981,3.772,0.000,0.000,0.000,0.000,0.000,0.000,35.133
2036,3.772,0.000,0.000,0.000,0.000,0.000,0.000,35.140
2091,3.772,0.000,0.000,0.000,0.000,0.000,0.000,35.182
2146,3.772,0.000,0.000,0.000,0.000,0.000,0.000,35.141
2201,3.772,0.000,0.000,0.000,0.000,0.000,0.000,35.157
2256,3.772,0.000,0.000,0.000,0.000,0.000,0.000,35.117
2311,3.772,0.000,0.000,0.000,0.000,0.000,0.000,35.098
2366,3.772,0.000,0.000,0.000,0.000,0.000,0.000,35.150
2421,3.772,0.000,0.000,0.000,0.000,0.000,0.000,35.110
2476,3.772,0.000,0.000,0.000,0.000,0.000,0.000,35.115
2531,3.772,0.000,0.000,0.000,0.000,0.000,0.000,35.147
2586,3.772,0.000,0.000,0.000,0.000,0.000,0.000,35.101
2641,3.772,0.000,0.000,0.000,0.000,0.000,0.000,35.124
2696,3.772,0.000,0.000,0.000,0.000,0.000,0.000,35.116
2751,3.772,0.000,0.000,0.000,0.000,0.000,0.000,35.184
2806,3.772,0.000,0.000,0.000,0.000,0.000,0.000,35.086
2861,3.772,0.000,0.000,0.000,0.000,0.000,0.000,35.094
2916,3.772,0.000,0.000,0.000,0.000,0.000,0.000,35.098
2971,3.772,0.000,0.000,0.000,0.000,0.000,0.000,35.122
3026,3.772,0.000,0.000,0.000,0.000,0.000,0.000,35.134
3081,3.772,0.000,0.000,0.000,0.000,0.000,0.000,35.111
3136,3.772,0.000,0.000,0.000,0.000,0.000,0.000,35.156
3191,3.772,0.000,0.000,0.000,0.000,0.000,0.000,35.158
3246,3.772,0.000,0.000,0.000,0.000,0.000,0.000,35.102
3301,3.772,0.000,0.000,0.000,0.000,0.000,0.000,35.134
3356,3.772,0.000,0.000,0.000,0.000,0.000,0.000,35.127
3411,3.772,0.000,0.000,0.000,0.000,0.000,0.000,35.117
3466,3.772,0.000,0.000,0.000,0.000,0.000,0.000,35.143
3521,3.772,0.000,0.000,0.000,0.000,0.000,0.000,35.150
3576,3.772,0.000,0.000,0.000,0.000,0.000,0.000,35.123
3630,3.916,1.625,0.014,0.000,0.053,0.000,0.000,35.174
3685,3.927,1.625,0.038,0.000,0.150,0.000,0.000,35.323
3740,3.936,1.625,0.063,0.000,0.248,0.000,0.000,35.427
3795,3.944,1.625,0.088,0.000,0.346,0.000,0.000,35.483
3850,3.951,1.625,0.113,0.000,0.444,0.000,0.000,35.583
3905,3.959,1.625,0.138,0.000,0.542,0.000,0.000,35.680
3960,3.967,1.625,0.163,0.000,0.640,0.000,0.000,35.762
4015,3.975,1.625,0.187,0.000,0.739,0.000,0.000,35.837
4070,3.982,1.625,0.212,0.000,0.838,0.000,0.000,35.861
4125,3.990,1.625,0.237,0.000,0.937,0.000,0.000,35.896
4180,3.998,1.625,0.262,0.000,1.036,0.000,0.000,36.005
4235,4.005,1.625,0.287,0.000,1.135,0.000,0.000,36.086
4290,4.013,1.625,0.312,0.000,1.235,0.000,0.000,36.104
4345,4.021,1.625,0.336,0.000,1.335,0.000,0.000,36.136
4400,4.028,1.625,0.361,0.000,1.435,0.000,0.000,36.189
4455,4.035,1.625,0.386,0.000,1.535,0.000,0.000,36.227
4510,4.043,1.625,0.411,0.000,1.635,0.000,0.000,36.253
4565,4.050,1.625,0.436,0.000,1.735,0.000,0.000,36.270
4620,4.058,1.625,0.461,0.000,1.836,0.000,0.000,36.379
4675,4.065,1.625,0.485,0.000,1.937,0.000,0.000,36.381
4730,4.073,1.625,0.510,0.000,2.038,0.000,0.000,36.398
4785,4.081,1.625,0.535,0.000,2.139,0.000,0.000,36.462
4840,4.089,1.625,0.560,0.000,2.241,0.000,0.000,36.480
4895,4.097,1.625,0.585,0.000,2.342,0.000,0.000,36.563
4950,4.105,1.625,0.609,0.000,2.444,0.000,0.000,36.597
5005,4.114,1.625,0.634,0.000,2.546,0.000,0.000,36.626
5060,4.122,1.625,0.659,0.000,2.648,0.000,0.000,36.614
5115,4.131,1.625,0.684,0.000,2.751,0.000,0.000,36.655
5170,4.141,1.625,0.709,0.000,2.854,0.000,0.000,36.667
5225,4.150,1.625,0.734,0.000,2.957,0.000,0.000,36.678
5280,4.160,1.625,0.758,0.000,3.060,0.000,0.000,36.750
5335,4.171,1.625,0.783,0.000,3.163,0.000,0.000,36.754
5390,4.181,1.625,0.808,0.000,3.267,0.000,0.000,36.789
5445,4.191,1.625,0.833,0.000,3.371,0.000,0.000,36.826
5499,4.200,1.604,0.857,0.000,3.473,0.000,0.000,36.852
5554,4.200,1.499,0.881,0.000,3.573,0.000,0.000,36.877
5609,4.200,1.413,0.903,0.000,3.666,0.000,0.000,36.832
5664,4.200,1.336,0.924,0.000,3.754,0.000,0.000,36.840
5719,4.200,1.266,0.944,0.000,3.837,0.000,0.000,36.789
5774,4.200,1.201,0.963,0.000,3.917,0.000,0.000,36.728
5829,4.200,1.142,0.981,0.000,3.992,0.000,0.000,36.694
5884,4.200,1.088,0.998,0.000,4.063,0.000,0.000,36.631
5939,4.200,1.037,1.014,0.000,4.131,0.000,0.000,36.593
5994,4.200,0.991,1.030,0.000,4.196,0.000,0.000,36.534
6049,4.200,0.948,1.044,0.000,4.258,0.000,0.000,36.458
6104,4.200,0.909,1.059,0.000,4.318,0.000,0.000,36.385
6159,4.200,0.873,1.072,0.000,4.375,0.000,0.000,36.341
6214,4.200,0.839,1.085,0.000,4.430,0.000,0.000,36.322
6269,4.200,0.806,1.098,0.000,4.483,0.000,0.000,36.236
6324,4.200,0.775,1.110,0.000,4.534,0.000,0.000,36.168
6379,4.200,0.746,1.121,0.000,4.582,0.000,0.000,36.129
6434,4.200,0.718,1.133,0.000,4.629,0.000,0.000,36.037
6489,4.200,0.690,1.143,0.000,4.674,0.000,0.000,36.010
6544,4.200,0.664,1.154,0.000,4.718,0.000,0.000,36.024
6599,4.200,0.639,1.164,0.000,4.760,0.000,0.000,35.963
6654,4.200,0.613,1.173,0.000,4.800,0.000,0.000,35.890
6709,4.200,0.590,1.182,0.000,4.838,0.000,0.000,35.856
6764,4.200,0.566,1.191,0.000,4.875,0.000,0.000,35.761
6819,4.200,0.543,1.200,0.000,4.911,0.000,0.000,35.745
6874,4.200,0.520,1.208,0.000,4.945,0.000,0.000,35.780
6929,4.200,0.498,1.216,0.000,4.978,0.000,0.000,35.680
6984,4.200,0.477,1.223,0.000,5.009,0.000,0.000,35.632
7039,4.200,0.456,1.230,0.000,5.039,0.000,0.000,35.590
7094,4.200,0.436,1.237,0.000,5.068,0.000,0.000,35.608
7149,4.200,0.416,1.243,0.000,5.095,0.000,0.000,35.555
7204,4.200,0.396,1.250,0.000,5.121,0.000,0.000,35.521
7259,4.200,0.378,1.256,0.000,5.146,0.000,0.000,35.476
7314,4.200,0.360,1.261,0.000,5.169,0.000,0.000,35.471
7369,4.200,0.343,1.267,0.000,5.192,0.000,0.000,35.448
7424,4.200,0.326,1.272,0.000,5.213,0.000,0.000,35.426
7479,4.200,0.310,1.277,0.000,5.234,0.000,0.000,35.381
7534,4.200,0.294,1.281,0.000,5.253,0.000,0.000,35.379
7589,4.200,0.280,1.286,0.000,5.272,0.000,0.000,35.327
7644,4.200,0.265,1.290,0.000,5.289,0.000,0.000,35.318
7699,4.200,0.252,1.294,0.000,5.306,0.000,0.000,35.270
7754,4.200,0.239,1.297,0.000,5.321,0.000,0.000,35.336
7809,4.200,0.227,1.301,0.000,5.336,0.000,0.000,35.299
7864,4.200,0.214,1.304,0.000,5.350,0.000,0.000,35.240
7919,4.200,0.203,1.308,0.000,5.364,0.000,0.000,35.218
7974,4.200,0.192,1.311,0.000,5.376,0.000,0.000,35.270
8029,4.200,0.182,1.313,0.000,5.388,0.000,0.000,35.243
8084,4.200,0.172,1.316,0.000,5.400,0.000,0.000,35.195
8139,4.200,0.164,1.319,0.000,5.411,0.000,0.000,35.153
8194,4.200,0.155,1.321,0.000,5.421,0.000,0.000,35.170
8249,4.200,0.147,1.323,0.000,5.430,0.000,0.000,35.136
8304,4.200,0.139,1.326,0.000,5.440,0.000,0.000,35.115
8359,4.200,0.132,1.328,0.000,5.448,0.000,0.000,35.144
8414,4.200,0.124,1.330,0.000,5.457,0.000,0.000,35.105
8469,4.200,0.118,1.331,0.000,5.464,0.000,0.000,35.188
8524,4.200,0.112,1.333,0.000,5.472,0.000,0.000,35.134
8579,4.200,0.106,1.335,0.000,5.479,0.000,0.000,35.138
8634,4.200,0.101,1.336,0.000,5.485,0.000,0.000,35.107
8689,4.200,0.095,1.338,0.000,5.492,0.000,0.000,35.099
8744,4.200,0.091,1.339,0.000,5.498,0.000,0.000,35.124
8799,4.200,0.086,1.341,0.000,5.503,0.000,0.000,35.120
8854,4.200,0.081,1.342,0.000,5.509,0.000,0.000,35.092
8909,4.200,0.077,1.343,0.000,5.514,0.000,0.000,35.082
8964,4.200,0.074,1.344,0.000,5.519,0.000,0.000,35.096
9019,4.200,0.070,1.345,0.000,5.523,0.000,0.000,35.095
9074,4.200,0.066,1.347,0.000,5.528,0.000,0.000,35.116
9129,4.193,0.000,1.347,0.000,5.529,0.000,0.000,35.068
9184,4.192,0.000,1.347,0.000,5.529,0.000,0.000,35.080
9239,4.192,0.000,1.347,0.000,5.529,0.000,0.000,35.038
9294,4.191,0.000,1.347,0.000,5.529,0.000,0.000,35.002
9349,4.191,0.000,1.347,0.000,5.529,0.000,0.000,35.019
9404,4.190,0.000,1.347,0.000,5.529,0.000,0.000,35.059
9459,4.190,0.000,1.347,0.000,5.529,0.000,0.000,35.039
9514,4.189,0.000,1.347,0.000,5.529,0.000,0.000,35.024
9569,4.189,0.000,1.347,0.000,5.529,0.000,0.000,34.993
9624,4.189,0.000,1.347,0.000,5.529,0.000,0.000,35.040
9679,4.188,0.000,1.347,0.000,5.529,0.000,0.000,35.057
9734,4.188,0.000,1.347,0.000,5.529,0.000,0.000,35.052
9789,4.188,0.000,1.347,0.000,5.529,0.000,0.000,34.968
9844,4.188,0.000,1.347,0.000,5.529,0.000,0.000,34.964
9899,4.188,0.000,1.347,0.000,5.529,0.000,0.000,35.004
9954,4.187,0.000,1.347,0.000,5.529,0.000,0.000,34.996
10009,4.187,0.000,1.347,0.000,5.529,0.000,0.000,34.998
10064,4.187,0.000,1.347,0.000,5.529,0.000,0.000,34.953
10119,4.187,0.000,1.347,0.000,5.529,0.000,0.000,34.972
10174,4.187,0.000,1.347,0.000,5.529,0.000,0.000,35.007
10229,4.186,0.000,1.347,0.000,5.529,0.000,0.000,34.976
10284,4.186,0.000,1.347,0.000,5.529,0.000,0.000,34.928
10339,4.186,0.000,1.347,0.000,5.529,0.000,0.000,34.999
10394,4.186,0.000,1.347,0.000,5.529,0.000,0.000,34.977
10449,4.186,0.000,1.347,0.000,5.529,0.000,0.000,34.956
10504,4.186,0.000,1.347,0.000,5.529,0.000,0.000,34.964
10559,4.186,0.000,1.347,0.000,5.529,0.000,0.000,34.994
10614,4.186,0.000,1.347,0.000,5.529,0.000,0.000,34.942
10669,4.186,0.000,1.347,0.000,5.529,0.000,0.000,34.993
10724,4.185,0.000,1.347,0.000,5.529,0.000,0.000,34.985
10779,4.185,0.000,1.347,0.000,5.529,0.000,0.000,34.977
10834,4.185,0.000,1.347,0.000,5.529,0.000,0.000,35.008
10889,4.185,0.000,1.347,0.000,5.529,0.000,0.000,34.963
10944,4.185,0.000,1.347,0.000,5.529,0.000,0.000,34.973
10999,4.185,0.000,1.347,0.000,5.529,0.000,0.000,34.945
11054,4.185,0.000,1.347,0.000,5.529,0.000,0.000,34.941
11109,4.185,0.000,1.347,0.000,5.529,0.000,0.000,34.993
11164,4.185,0.000,1.347,0.000,5.529,0.000,0.000,34.942
11219,4.185,0.000,1.347,0.000,5.529,0.000,0.000,34.977
11274,4.184,0.000,1.347,0.000,5.529,0.000,0.000,34.968
11329,4.184,0.000,1.347,0.000,5.529,0.000,0.000,34.949
11384,4.184,0.000,1.347,0.000,5.529,0.000,0.000,34.953
11439,4.184,0.000,1.347,0.000,5.529,0.000,0.000,34.938
11494,4.184,0.000,1.347,0.000,5.529,0.000,0.000,34.956
11549,4.184,0.000,1.347,0.000,5.529,0.000,0.000,34.986
11604,4.184,0.000,1.347,0.000,5.529,0.000,0.000,34.938
11659,4.184,0.000,1.347,0.000,5.529,0.000,0.000,34.972
11714,4.184,0.000,1.347,0.000,5.529,0.000,0.000,34.977
11769,4.184,0.000,1.347,0.000,5.529,0.000,0.000,34.965
11824,4.184,0.000,1.347,0.000,5.529,0.000,0.000,34.954
11879,4.184,0.000,1.347,0.000,5.529,0.000,0.000,34.978
11934,4.184,0.000,1.347,0.000,5.529,0.000,0.000,34.969
11989,4.184,0.000,1.347,0.000,5.529,0.000,0.000,34.978
12044,4.184,0.000,1.347,0.000,5.529,0.000,0.000,34.969
12099,4.184,0.000,1.347,0.000,5.529,0.000,0.000,34.974
12154,4.183,0.000,1.347,0.000,5.529,0.000,0.000,35.182
12209,4.183,0.000,1.347,0.000,5.529,0.000,0.000,35.124
12264,4.183,0.000,1.347,0.000,5.529,0.000,0.000,35.035
12319,4.183,0.000,1.347,0.000,5.529,0.000,0.000,35.064
12374,4.183,0.000,1.347,0.000,5.529,0.000,0.000,35.064
12429,4.183,0.000,1.347,0.000,5.529,0.000,0.000,35.088
12484,4.183,0.000,1.347,0.000,5.529,0.000,0.000,35.056
12539,4.183,0.000,1.347,0.000,5.529,0.000,0.000,35.013
12594,4.183,0.000,1.347,0.000,5.529,0.000,0.000,34.984
12649,4.183,0.000,1.347,0.000,5.529,0.000,0.000,34.988
12703,3.895,-3.350,1.347,0.007,5.529,0.025,-0.003,35.027
12758,3.844,-3.350,1.347,0.058,5.529,0.223,-0.001,35.349
12813,3.821,-3.350,1.347,0.109,5.529,0.419,0.000,35.773
12868,3.803,-3.350,1.347,0.160,5.529,0.614,0.000,36.131
12923,3.787,-3.350,1.347,0.211,5.529,0.809,0.000,36.445
12978,3.771,-3.350,1.347,0.262,5.529,1.002,0.000,36.781
13033,3.754,-3.350,1.347,0.314,5.529,1.195,0.000,37.018
13087,4.029,0.000,1.347,0.335,5.529,1.275,0.001,37.204
13142,4.046,0.000,1.347,0.335,5.529,1.275,0.000,36.952
13197,4.052,0.000,1.347,0.335,5.529,1.275,0.000,36.772
13252,4.054,0.000,1.347,0.335,5.529,1.275,0.000,36.579
13307,4.055,0.000,1.347,0.335,5.529,1.275,0.000,36.331
13362,4.056,0.000,1.347,0.335,5.529,1.275,0.000,36.184
13417,4.056,0.000,1.347,0.335,5.529,1.275,0.000,36.056
13472,4.057,0.000,1.347,0.335,5.529,1.275,0.000,35.923
13527,4.057,0.000,1.347,0.335,5.529,1.275,0.000,35.829
13582,4.057,0.000,1.347,0.335,5.529,1.275,0.000,35.717
13637,4.057,0.000,1.347,0.335,5.529,1.275,0.000,35.613
13692,4.058,0.000,1.347,0.335,5.529,1.275,0.000,35.555
13747,4.058,0.000,1.347,0.335,5.529,1.275,0.000,35.466
13802,4.058,0.000,1.347,0.335,5.529,1.275,0.000,35.399
13857,4.058,0.000,1.347,0.335,5.529,1.275,0.000,35.374
13912,4.058,0.000,1.347,0.335,5.529,1.275,0.000,35.312
13967,4.058,0.000,1.347,0.335,5.529,1.275,0.000,35.291
14022,4.058,0.000,1.347,0.335,5.529,1.275,0.000,35.147
14077,4.058,0.000,1.347,0.335,5.529,1.275,0.000,35.171
14132,4.058,0.000,1.347,0.335,5.529,1.275,0.000,35.132
14187,4.058,0.000,1.347,0.335,5.529,1.275,0.000,35.105
14242,4.059,0.000,1.347,0.335,5.529,1.275,0.000,35.100
14297,4.058,0.000,1.347,0.335,5.529,1.275,0.000,35.027
14352,4.059,0.000,1.347,0.335,5.529,1.275,0.000,35.064
14407,4.059,0.000,1.347,0.335,5.529,1.275,0.000,35.028
14462,4.059,0.000,1.347,0.335,5.529,1.275,0.000,35.029
14517,4.059,0.000,1.347,0.335,5.529,1.275,0.000,35.041
14572,4.059,0.000,1.347,0.335,5.529,1.275,0.000,35.026
14627,4.059,0.000,1.347,0.335,5.529,1.275,0.000,35.018
14682,4.059,0.000,1.347,0.335,5.529,1.275,0.000,34.995
14737,4.059,0.000,1.347,0.335,5.529,1.275,0.000,35.019
14792,4.059,0.000,1.347,0.335,5.529,1.275,0.000,34.953
14847,4.059,0.000,1.347,0.335,5.529,1.275,0.000,34.951
14902,4.059,0.000,1.347,0.335,5.529,1.275,0.000,34.957
14957,4.059,0.000,1.347,0.335,5.529,1.275,0.000,34.982
15012,4.059,0.000,1.347,0.335,5.529,1.275,0.000,34.926
15067,4.059,0.000,1.347,0.335,5.529,1.275,0.000,34.963
15122,4.059,0.000,1.347,0.335,5.529,1.275,0.000,34.928
15177,4.059,0.000,1.347,0.335,5.529,1.275,0.000,34.943
15232,4.059,0.000,1.347,0.335,5.529,1.275,0.000,34.965
15287,4.059,0.000,1.347,0.335,5.529,1.275,0.000,34.977
15342,4.059,0.000,1.347,0.335,5.529,1.275,0.000,34.952
15397,4.059,0.000,1.347,0.335,5.529,1.275,0.000,34.960
15452,4.059,0.000,1.347,0.335,5.529,1.275,0.000,34.969
15507,4.059,0.000,1.347,0.335,5.529,1.275,0.000,34.913
15562,4.059,0.000,1.347,0.335,5.529,1.275,0.000,34.925
15617,4.059,0.000,1.347,0.335,5.529,1.275,0.000,34.894
15672,4.059,0.000,1.347,0.335,5.529,1.275,0.000,34.955
15727,4.059,0.000,1.347,0.335,5.529,1.275,0.000,34.951
15782,4.059,0.000,1.347,0.335,5.529,1.275,0.000,34.925
15837,4.059,0.000,1.347,0.335,5.529,1.275,0.000,34.925
15892,4.059,0.000,1.347,0.335,5.529,1.275,0.000,34.944
15947,4.059,0.000,1.347,0.335,5.529,1.275,0.000,34.919
16002,4.059,0.000,1.347,0.335,5.529,1.275,0.000,34.932
16057,4.059,0.000,1.347,0.335,5.529,1.275,0.000,34.896
16112,4.060,0.000,1.347,0.335,5.529,1.275,0.000,34.884
16167,4.060,0.000,1.347,0.335,5.529,1.275,0.000,34.920
16222,4.060,0.000,1.347,0.335,5.529,1.275,0.000,34.895
16277,4.060,0.000,1.347,0.335,5.529,1.275,0.000,34.947
16332,4.060,0.000,1.347,0.335,5.529,1.275,0.000,34.922
16387,4.060,0.000,1.347,0.335,5.529,1.275,0.000,34.934
16442,4.060,0.000,1.347,0.335,5.529,1.275,0.000,34.900
16497,4.060,0.000,1.347,0.335,5.529,1.275,0.000,34.930
16552,4.060,0.000,1.347,0.335,5.529,1.275,0.000,34.922
16607,4.060,0.000,1.347,0.335,5.529,1.275,0.000,34.902
16661,3.819,-3.000,1.347,0.339,5.529,1.291,-0.003,34.927
16715,4.235,2.250,1.352,0.344,5.550,1.307,0.001,35.003
16768,3.778,-3.350,1.353,0.354,5.556,1.346,-0.002,35.014
16823,3.730,-3.350,1.353,0.405,5.556,1.538,0.000,35.297
16878,3.705,-3.350,1.353,0.456,5.556,1.728,0.000,35.785
16933,3.685,-3.350,1.353,0.507,5.556,1.918,0.000,36.078
16988,3.666,-3.350,1.353,0.558,5.556,2.106,0.000,36.384
17043,3.648,-3.350,1.353,0.610,5.556,2.293,0.000,36.669
17098,3.631,-3.350,1.353,0.661,5.556,2.479,0.000,36.883
17152,3.903,0.000,1.353,0.679,5.556,2.543,0.000,37.009
17207,3.915,0.000,1.353,0.679,5.556,2.543,0.000,36.921
17262,3.919,0.000,1.353,0.679,5.556,2.543,0.000,36.775
17317,3.923,0.000,1.353,0.679,5.556,2.543,0.000,36.626
17372,3.926,0.000,1.353,0.679,5.556,2.543,0.000,36.462
17427,3.930,0.000,1.353,0.679,5.556,2.543,0.000,36.370
17482,3.934,0.000,1.353,0.679,5.556,2.543,0.000,36.196
17537,3.937,0.000,1.353,0.679,5.556,2.543,0.000,36.077
17592,3.940,0.000,1.353,0.679,5.556,2.543,0.000,35.913
17647,3.941,0.000,1.353,0.679,5.556,2.543,0.000,35.788
17702,3.942,0.000,1.353,0.679,5.556,2.543,0.000,35.719
17757,3.942,0.000,1.353,0.679,5.556,2.543,0.000,35.631
17812,3.943,0.000,1.353,0.679,5.556,2.543,0.000,35.495
17867,3.943,0.000,1.353,0.679,5.556,2.543,0.000,35.452
17922,3.943,0.000,1.353,0.679,5.556,2.543,0.000,35.389
17977,3.943,0.000,1.353,0.679,5.556,2.543,0.000,35.408
18032,3.943,0.000,1.353,0.679,5.556,2.543,0.000,35.309
18087,3.943,0.000,1.353,0.679,5.556,2.543,0.000,35.229
18142,3.944,0.000,1.353,0.679,5.556,2.543,0.000,35.196
18197,3.944,0.000,1.353,0.679,5.556,2.543,0.000,35.152
18252,3.944,0.000,1.353,0.679,5.556,2.543,0.000,35.190
18307,3.944,0.000,1.353,0.679,5.556,2.543,0.000,35.115
18362,3.944,0.000,1.353,0.679,5.556,2.543,0.000,35.059
18417,3.944,0.000,1.353,0.679,5.556,2.543,0.000,35.078
18472,3.944,0.000,1.353,0.679,5.556,2.543,0.000,35.060
18527,3.944,0.000,1.353,0.679,5.556,2.543,0.000,35.028
18582,3.944,0.000,1.353,0.679,5.556,2.543,0.000,35.016
18637,3.944,0.000,1.353,0.679,5.556,2.543,0.000,35.020
18692,3.944,0.000,1.353,0.679,5.556,2.543,0.000,35.017
18747,3.944,0.000,1.353,0.679,5.556,2.543,0.000,34.993
18802,3.944,0.000,1.353,0.679,5.556,2.543,0.000,34.977
18857,3.944,0.000,1.353,0.679,5.556,2.543,0.000,34.980
18912,3.944,0.000,1.353,0.679,5.556,2.543,0.000,34.979
18967,3.944,0.000,1.353,0.679,5.556,2.543,0.000,34.972
19022,3.944,0.000,1.353,0.679,5.556,2.543,0.000,34.959
19077,3.944,0.000,1.353,0.679,5.556,2.543,0.000,34.939
19132,3.944,0.000,1.353,0.679,5.556,2.543,0.000,34.954
19187,3.945,0.000,1.353,0.679,5.556,2.543,0.000,34.916
19242,3.945,0.000,1.353,0.679,5.556,2.543,0.000,34.981
19297,3.945,0.000,1.353,0.679,5.556,2.543,0.000,34.926
19352,3.945,0.000,1.353,0.679,5.556,2.543,0.000,34.910
19407,3.945,0.000,1.353,0.679,5.556,2.543,0.000,34.913
19462,3.945,0.000,1.353,0.679,5.556,2.543,0.000,34.897
19517,3.945,0.000,1.353,0.679,5.556,2.543,0.000,34.920
19572,3.945,0.000,1.353,0.679,5.556,2.543,0.000,34.893
19627,3.945,0.000,1.353,0.679,5.556,2.543,0.000,34.867
19682,3.945,0.000,1.353,0.679,5.556,2.543,0.000,34.956
19737,3.945,0.000,1.353,0.679,5.556,2.543,0.000,34.897
19792,3.945,0.000,1.353,0.679,5.556,2.543,0.000,34.909
19847,3.945,0.000,1.353,0.679,5.556,2.543,0.000,34.849
19902,3.945,0.000,1.353,0.679,5.556,2.543,0.000,34.904
19957,3.945,0.000,1.353,0.679,5.556,2.543,0.000,34.928
20012,3.945,0.000,1.353,0.679,5.556,2.543,0.000,34.895
20067,3.945,0.000,1.353,0.679,5.556,2.543,0.000,34.886
20122,3.945,0.000,1.353,0.679,5.556,2.543,0.000,34.950
20177,3.945,0.000,1.353,0.679,5.556,2.543,0.000,34.923
20232,3.945,0.000,1.353,0.679,5.556,2.543,0.000,34.892
20287,3.945,0.000,1.353,0.679,5.556,2.543,0.000,34.883
20342,3.945,0.000,1.353,0.679,5.556,2.543,0.000,34.846
20397,3.945,0.000,1.353,0.679,5.556,2.543,0.000,34.928
20452,3.945,0.000,1.353,0.679,5.556,2.543,0.000,34.926
20507,3.945,0.000,1.353,0.679,5.556,2.543,0.000,34.928
20562,3.945,0.000,1.353,0.679,5.556,2.543,0.000,34.941
20617,3.945,0.000,1.353,0.679,5.556,2.543,0.000,34.898
20672,3.945,0.000,1.353,0.679,5.556,2.543,0.000,34.936
20726,3.696,-3.000,1.353,0.686,5.556,2.571,-0.002,34.935
20778,3.956,0.000,1.359,0.687,5.582,2.575,-0.164,34.954
20832,3.657,-3.350,1.359,0.701,5.582,2.626,-0.002,35.016
20887,3.618,-3.350,1.359,0.752,5.582,2.812,0.000,35.343
20942,3.598,-3.350,1.359,0.803,5.582,2.997,0.000,35.616
20997,3.580,-3.350,1.359,0.855,5.582,3.180,0.000,35.916
21052,3.563,-3.350,1.359,0.906,5.582,3.363,0.000,36.234
21107,3.547,-3.350,1.359,0.957,5.582,3.545,0.000,36.555
21162,3.532,-3.350,1.359,1.008,5.582,3.726,0.000,36.857
21216,3.810,0.000,1.359,1.022,5.582,3.775,0.000,36.962
21271,3.822,0.000,1.359,1.022,5.582,3.775,0.000,36.747
21326,3.827,0.000,1.359,1.022,5.582,3.775,0.000,36.602
21381,3.830,0.000,1.359,1.022,5.582,3.775,0.000,36.537
21436,3.832,0.000,1.359,1.022,5.582,3.775,0.000,36.380
21491,3.833,0.000,1.359,1.022,5.582,3.775,0.000,36.285
21546,3.834,0.000,1.359,1.022,5.582,3.775,0.000,36.195
21601,3.835,0.000,1.359,1.022,5.582,3.775,0.000,36.097
21656,3.836,0.000,1.359,1.022,5.582,3.775,0.000,35.950
21711,3.837,0.000,1.359,1.022,5.582,3.775,0.000,35.904
21766,3.838,0.000,1.359,1.022,5.582,3.775,0.000,35.816
21821,3.840,0.000,1.359,1.022,5.582,3.775,0.000,35.758
21876,3.841,0.000,1.359,1.022,5.582,3.775,0.000,35.741
21931,3.843,0.000,1.359,1.022,5.582,3.775,0.000,35.634
21986,3.845,0.000,1.359,1.022,5.582,3.775,0.000,35.576
22041,3.848,0.000,1.359,1.022,5.582,3.775,0.000,35.480
22096,3.850,0.000,1.359,1.022,5.582,3.775,0.000,35.446
22151,3.852,0.000,1.359,1.022,5.582,3.775,0.000,35.420
22206,3.853,0.000,1.359,1.022,5.582,3.775,0.000,35.367
22261,3.855,0.000,1.359,1.022,5.582,3.775,0.000,35.294
22316,3.856,0.000,1.359,1.022,5.582,3.775,0.000,35.273
22371,3.856,0.000,1.359,1.022,5.582,3.775,0.000,35.204
22426,3.857,0.000,1.359,1.022,5.582,3.775,0.000,35.263
22481,3.857,0.000,1.359,1.022,5.582,3.775,0.000,35.136
22536,3.857,0.000,1.359,1.022,5.582,3.775,0.000,35.182
22591,3.858,0.000,1.359,1.022,5.582,3.775,0.000,35.103
22646,3.858,0.000,1.359,1.022,5.582,3.775,0.000,35.106
22701,3.858,0.000,1.359,1.022,5.582,3.775,0.000,35.108
22756,3.858,0.000,1.359,1.022,5.582,3.775,0.000,35.118
22811,3.858,0.000,1.359,1.022,5.582,3.775,0.000,35.076
22866,3.858,0.000,1.359,1.022,5.582,3.775,0.000,35.125
22921,3.858,0.000,1.359,1.022,5.582,3.775,0.000,35.187
22976,3.858,0.000,1.359,1.022,5.582,3.775,0.000,35.082
23031,3.859,0.000,1.359,1.022,5.582,3.775,0.000,35.317
23086,3.859,0.000,1.359,1.022,5.582,3.775,0.000,35.194
23141,3.859,0.000,1.359,1.022,5.582,3.775,0.000,35.105
23196,3.859,0.000,1.359,1.022,5.582,3.775,0.000,35.076
23251,3.859,0.000,1.359,1.022,5.582,3.775,0.000,35.054
23306,3.859,0.000,1.359,1.022,5.582,3.775,0.000,35.040
23361,3.859,0.000,1.359,1.022,5.582,3.775,0.000,34.998
23416,3.859,0.000,1.359,1.022,5.582,3.775,0.000,35.065
23471,3.859,0.000,1.359,1.022,5.582,3.775,0.000,35.002
23526,3.859,0.000,1.359,1.022,5.582,3.775,0.000,35.021
23581,3.859,0.000,1.359,1.022,5.582,3.775,0.000,34.975
23636,3.859,0.000,1.359,1.022,5.582,3.775,0.000,35.022
23691,3.859,0.000,1.359,1.022,5.582,3.775,0.000,34.996
23746,3.859,0.000,1.359,1.022,5.582,3.775,0.000,34.977
23801,3.859,0.000,1.359,1.022,5.582,3.775,0.000,34.976
23856,3.859,0.000,1.359,1.022,5.582,3.775,0.000,34.967
23911,3.859,0.000,1.359,1.022,5.582,3.775,0.000,34.998
23966,3.859,0.000,1.359,1.022,5.582,3.775,0.000,34.926
24021,3.859,0.000,1.359,1.022,5.582,3.775,0.000,34.928
24076,3.859,0.000,1.359,1.022,5.582,3.775,0.000,34.894
24131,3.859,0.000,1.359,1.022,5.582,3.775,0.000,34.886
24186,3.859,0.000,1.359,1.022,5.582,3.775,0.000,34.920
24241,3.859,0.000,1.359,1.022,5.582,3.775,0.000,34.959
24296,3.859,0.000,1.359,1.022,5.582,3.775,0.000,34.953
24351,3.859,0.000,1.359,1.022,5.582,3.775,0.000,34.900
24406,3.860,0.000,1.359,1.022,5.582,3.775,0.000,34.923
24461,3.859,0.000,1.359,1.022,5.582,3.775,0.000,34.915
24516,3.859,0.000,1.359,1.022,5.582,3.775,0.000,34.928
24571,3.859,0.000,1.359,1.022,5.582,3.775,0.000,34.924
24626,3.860,0.000,1.359,1.022,5.582,3.775,0.000,34.940
24681,3.860,0.000,1.359,1.022,5.582,3.775,0.000,34.932
24736,3.860,0.000,1.359,1.022,5.582,3.775,0.000,34.917
24789,3.833,0.000,1.359,1.030,5.582,3.806,0.003,34.933
24842,3.866,0.000,1.366,1.030,5.607,3.806,-0.001,34.998
24897,3.564,-3.350,1.366,1.048,5.607,3.869,-0.001,35.034
24952,3.530,-3.350,1.366,1.099,5.607,4.051,-0.001,35.380
25007,3.510,-3.350,1.366,1.151,5.607,4.231,0.000,35.677
25062,3.491,-3.350,1.366,1.202,5.607,4.410,0.000,36.022
25117,3.471,-3.350,1.366,1.253,5.607,4.588,0.000,36.241
25172,3.451,-3.350,1.366,1.304,5.607,4.765,0.000,36.511
25227,3.433,-3.350,1.366,1.355,5.607,4.942,0.000,36.898
25281,3.716,0.000,1.366,1.366,5.607,4.977,0.000,36.935
25336,3.729,0.000,1.366,1.366,5.607,4.977,0.000,36.727
25391,3.733,0.000,1.366,1.366,5.607,4.977,0.000,36.639
25446,3.737,0.000,1.366,1.366,5.607,4.977,0.000,36.421
25501,3.739,0.000,1.366,1.366,5.607,4.977,0.000,36.316
25556,3.740,0.000,1.366,1.366,5.607,4.977,0.000,36.202
25611,3.741,0.000,1.366,1.366,5.607,4.977,0.000,36.051
25666,3.742,0.000,1.366,1.366,5.607,4.977,0.000,35.985
25721,3.742,0.000,1.366,1.366,5.607,4.977,0.000,35.925
25776,3.743,0.000,1.366,1.366,5.607,4.977,0.000,35.817
25831,3.743,0.000,1.366,1.366,5.607,4.977,0.000,35.784
25886,3.744,0.000,1.366,1.366,5.607,4.977,0.000,35.744
25941,3.744,0.000,1.366,1.366,5.607,4.977,0.000,35.647
25996,3.745,0.000,1.366,1.366,5.607,4.977,0.000,35.579
26051,3.745,0.000,1.366,1.366,5.607,4.977,0.000,35.582
26106,3.746,0.000,1.366,1.366,5.607,4.977,0.000,35.505
26161,3.746,0.000,1.366,1.366,5.607,4.977,0.000,35.448
26216,3.746,0.000,1.366,1.366,5.607,4.977,0.000,35.396
26271,3.747,0.000,1.366,1.366,5.607,4.977,0.000,35.443
26326,3.747,0.000,1.366,1.366,5.607,4.977,0.000,35.344
26381,3.748,0.000,1.366,1.366,5.607,4.977,0.000,35.350
26436,3.748,0.000,1.366,1.366,5.607,4.977,0.000,35.323
26491,3.749,0.000,1.366,1.366,5.607,4.977,0.000,35.297
26546,3.749,0.000,1.366,1.366,5.607,4.977,0.000,35.304
26601,3.750,0.000,1.366,1.366,5.607,4.977,0.000,35.242
26656,3.751,0.000,1.366,1.366,5.607,4.977,0.000,35.218
26711,3.751,0.000,1.366,1.366,5.607,4.977,0.000,35.174
26766,3.752,0.000,1.366,1.366,5.607,4.977,0.000,35.188
26821,3.753,0.000,1.366,1.366,5.607,4.977,0.000,35.162
26876,3.754,0.000,1.366,1.366,5.607,4.977,0.000,35.139
26931,3.755,0.000,1.366,1.366,5.607,4.977,0.000,35.102
26986,3.756,0.000,1.366,1.366,5.607,4.977,0.000,35.129
27041,3.757,0.000,1.366,1.366,5.607,4.977,0.000,35.064
27096,3.758,0.000,1.366,1.366,5.607,4.977,0.000,35.027
27151,3.759,0.000,1.366,1.366,5.607,4.977,0.000,35.050
27206,3.760,0.000,1.366,1.366,5.607,4.977,0.000,35.030
27261,3.761,0.000,1.366,1.366,5.607,4.977,0.000,35.022
27316,3.761,0.000,1.366,1.366,5.607,4.977,0.000,35.043
27371,3.762,0.000,1.366,1.366,5.607,4.977,0.000,35.007
27426,3.763,0.000,1.366,1.366,5.607,4.977,0.000,34.957
27481,3.763,0.000,1.366,1.366,5.607,4.977,0.000,35.025
27536,3.764,0.000,1.366,1.366,5.607,4.977,0.000,34.979
27591,3.764,0.000,1.366,1.366,5.607,4.977,0.000,34.937
27646,3.765,0.000,1.366,1.366,5.607,4.977,0.000,34.930
27701,3.765,0.000,1.366,1.366,5.607,4.977,0.000,34.948
27756,3.765,0.000,1.366,1.366,5.607,4.977,0.000,34.943
27811,3.766,0.000,1.366,1.366,5.607,4.977,0.000,34.928
27866,3.766,0.000,1.366,1.366,5.607,4.977,0.000,34.899
27921,3.766,0.000,1.366,1.366,5.607,4.977,0.000,34.962
27976,3.766,0.000,1.366,1.366,5.607,4.977,0.000,34.943
28031,3.767,0.000,1.366,1.366,5.607,4.977,0.000,34.943
28086,3.767,0.000,1.366,1.366,5.607,4.977,0.000,34.922
28141,3.767,0.000,1.366,1.366,5.607,4.977,0.000,34.893
28196,3.767,0.000,1.366,1.366,5.607,4.977,0.000,34.916
28251,3.767,0.000,1.366,1.366,5.607,4.977,0.000,34.901
28306,3.767,0.000,1.366,1.366,5.607,4.977,0.000,34.910
28361,3.767,0.000,1.366,1.366,5.607,4.977,0.000,34.860
28416,3.768,0.000,1.366,1.366,5.607,4.977,0.000,34.865
28471,3.768,0.000,1.366,1.366,5.607,4.977,0.000,34.904
28526,3.768,0.000,1.366,1.366,5.607,4.977,0.000,34.864
28581,3.768,0.000,1.366,1.366,5.607,4.977,0.000,34.882
28636,3.768,0.000,1.366,1.366,5.607,4.977,0.000,34.869
28691,3.768,0.000,1.366,1.366,5.607,4.977,0.000,34.891
28746,3.768,0.000,1.366,1.366,5.607,4.977,0.000,34.878
28801,3.768,0.000,1.366,1.366,5.607,4.977,0.000,34.851
28854,3.746,0.000,1.366,1.374,5.607,5.006,0.001,34.910
28907,3.772,0.000,1.372,1.374,5.632,5.007,0.000,34.930
28961,3.465,-3.350,1.372,1.395,5.632,5.081,-0.001,34.983
29016,3.434,-3.350,1.372,1.447,5.632,5.258,0.000,35.273
29071,3.414,-3.350,1.372,1.498,5.632,5.433,0.000,35.606
29126,3.395,-3.350,1.372,1.549,5.632,5.607,0.000,35.891
29181,3.377,-3.350,1.372,1.600,5.632,5.780,-0.001,36.086
29236,3.359,-3.350,1.372,1.651,5.632,5.953,0.000,36.379
29291,3.344,-3.350,1.372,1.702,5.632,6.124,0.000,36.658
29345,3.632,0.000,1.372,1.709,5.632,6.146,0.000,36.666
29400,3.643,0.000,1.372,1.709,5.632,6.146,0.000,36.473
29455,3.647,0.000,1.372,1.709,5.632,6.146,0.000,36.280
29510,3.650,0.000,1.372,1.709,5.632,6.146,0.000,36.104
29565,3.651,0.000,1.372,1.709,5.632,6.146,0.000,35.990
29620,3.652,0.000,1.372,1.709,5.632,6.146,0.000,35.836
29675,3.653,0.000,1.372,1.709,5.632,6.146,0.000,35.761
29730,3.654,0.000,1.372,1.709,5.632,6.146,0.000,35.662
29785,3.654,0.000,1.372,1.709,5.632,6.146,0.000,35.571
29840,3.655,0.000,1.372,1.709,5.632,6.146,0.000,35.516
29895,3.655,0.000,1.372,1.709,5.632,6.146,0.000,35.422
29950,3.656,0.000,1.372,1.709,5.632,6.146,0.000,35.408
30005,3.656,0.000,1.372,1.709,5.632,6.146,0.000,35.376
30060,3.656,0.000,1.372,1.709,5.632,6.146,0.000,35.290
30115,3.656,0.000,1.372,1.709,5.632,6.146,0.000,35.273
30170,3.657,0.000,1.372,1.709,5.632,6.146,0.000,35.223
30225,3.657,0.000,1.372,1.709,5.632,6.146,0.000,35.166
30280,3.657,0.000,1.372,1.709,5.632,6.146,0.000,35.160
30335,3.657,0.000,1.372,1.709,5.632,6.146,0.000,35.127
30390,3.657,0.000,1.372,1.709,5.632,6.146,0.000,35.087
30445,3.657,0.000,1.372,1.709,5.632,6.146,0.000,35.115
30500,3.658,0.000,1.372,1.709,5.632,6.146,0.000,35.051
30555,3.658,0.000,1.372,1.709,5.632,6.146,0.000,35.055
30610,3.658,0.000,1.372,1.709,5.632,6.146,0.000,35.012
30665,3.658,0.000,1.372,1.709,5.632,6.146,0.000,35.044
30720,3.658,0.000,1.372,1.709,5.632,6.146,0.000,34.973
30775,3.658,0.000,1.372,1.709,5.632,6.146,0.000,34.969
30830,3.658,0.000,1.372,1.709,5.632,6.146,0.000,34.962
30885,3.658,0.000,1.372,1.709,5.632,6.146,0.000,34.985
30940,3.658,0.000,1.372,1.709,5.632,6.146,0.000,34.963
30995,3.659,0.000,1.372,1.709,5.632,6.146,0.000,34.922
31050,3.659,0.000,1.372,1.709,5.632,6.146,0.000,34.909
31105,3.659,0.000,1.372,1.709,5.632,6.146,0.000,34.968
31160,3.659,0.000,1.372,1.709,5.632,6.146,0.000,34.917
31215,3.659,0.000,1.372,1.709,5.632,6.146,0.000,34.972
31270,3.659,0.000,1.372,1.709,5.632,6.146,0.000,34.943
31325,3.659,0.000,1.372,1.709,5.632,6.146,0.000,34.936
31380,3.659,0.000,1.372,1.709,5.632,6.146,0.000,34.939
31435,3.659,0.000,1.372,1.709,5.632,6.146,0.000,34.907
31490,3.659,0.000,1.372,1.709,5.632,6.146,0.000,34.896
31545,3.659,0.000,1.372,1.709,5.632,6.146,0.000,34.841
31600,3.659,0.000,1.372,1.709,5.632,6.146,0.000,34.861
31655,3.659,0.000,1.372,1.709,5.632,6.146,0.000,34.888
31710,3.659,0.000,1.372,1.709,5.632,6.146,0.000,34.881
31765,3.659,0.000,1.372,1.709,5.632,6.146,0.000,34.930
31820,3.659,0.000,1.372,1.709,5.632,6.146,0.000,34.861
31875,3.659,0.000,1.372,1.709,5.632,6.146,0.000,34.886
31930,3.659,0.000,1.372,1.709,5.632,6.146,0.000,34.870
31985,3.660,0.000,1.372,1.709,5.632,6.146,0.000,34.894
32040,3.659,0.000,1.372,1.709,5.632,6.146,0.000,34.892
32095,3.659,0.000,1.372,1.709,5.632,6.146,0.000,34.870
32150,3.660,0.000,1.372,1.709,5.632,6.146,0.000,34.866
32205,3.660,0.000,1.372,1.709,5.632,6.146,0.000,34.863
32260,3.659,0.000,1.372,1.709,5.632,6.146,0.000,34.823
32315,3.660,0.000,1.372,1.709,5.632,6.146,0.000,34.838
32370,3.660,0.000,1.372,1.709,5.632,6.146,0.000,34.853
32425,3.660,0.000,1.372,1.709,5.632,6.146,0.000,34.828
32480,3.660,0.000,1.372,1.709,5.632,6.146,0.000,34.822
32535,3.660,0.000,1.372,1.709,5.632,6.146,0.000,34.836
32590,3.660,0.000,1.372,1.709,5.632,6.146,0.000,34.794
32645,3.660,0.000,1.372,1.709,5.632,6.146,0.000,34.807
32700,3.660,0.000,1.372,1.709,5.632,6.146,0.000,34.804
32755,3.660,0.000,1.372,1.709,5.632,6.146,0.000,34.816
32810,3.660,0.000,1.372,1.709,5.632,6.146,0.000,34.823
32865,3.660,0.000,1.372,1.709,5.632,6.146,0.000,34.847
32918,3.647,0.000,1.372,1.717,5.632,6.175,0.001,34.827
32971,3.662,0.000,1.378,1.717,5.656,6.175,0.000,34.895
33025,3.367,-3.350,1.378,1.743,5.656,6.260,-0.001,34.968
33080,3.335,-3.350,1.378,1.794,5.656,6.432,0.000,35.325
33135,3.315,-3.350,1.378,1.845,5.656,6.602,0.000,35.689
33190,3.299,-3.350,1.378,1.896,5.656,6.771,0.000,36.046
33245,3.285,-3.350,1.378,1.947,5.656,6.940,0.000,36.430
33300,3.271,-3.350,1.378,1.998,5.656,7.107,0.000,36.784
33355,3.257,-3.350,1.378,2.050,5.656,7.274,0.000,37.079
33409,3.560,0.000,1.378,2.052,5.656,7.284,0.000,37.012
33464,3.572,0.000,1.378,2.052,5.656,7.284,0.000,36.774
33519,3.579,0.000,1.378,2.052,5.656,7.284,0.000,36.487
33574,3.584,0.000,1.378,2.052,5.656,7.284,0.000,36.289
33629,3.587,0.000,1.378,2.052,5.656,7.284,0.000,36.102
33684,3.588,0.000,1.378,2.052,5.656,7.284,0.000,35.895
33739,3.590,0.000,1.378,2.052,5.656,7.284,0.000,35.785
33794,3.590,0.000,1.378,2.052,5.656,7.284,0.000,35.787
33849,3.591,0.000,1.378,2.052,5.656,7.284,0.000,35.815
33904,3.591,0.000,1.378,2.052,5.656,7.284,0.000,35.657
33959,3.592,0.000,1.378,2.052,5.656,7.284,0.000,35.555
34014,3.592,0.000,1.378,2.052,5.656,7.284,0.000,35.435
34069,3.592,0.000,1.378,2.052,5.656,7.284,0.000,35.388
34124,3.593,0.000,1.378,2.052,5.656,7.284,0.000,35.284
34179,3.593,0.000,1.378,2.052,5.656,7.284,0.000,35.258
34234,3.593,0.000,1.378,2.052,5.656,7.284,0.000,35.188
34289,3.593,0.000,1.378,2.052,5.656,7.284,0.000,35.174
34344,3.593,0.000,1.378,2.052,5.656,7.284,0.000,35.113
34399,3.594,0.000,1.378,2.052,5.656,7.284,0.000,35.170
34454,3.594,0.000,1.378,2.052,5.656,7.284,0.000,35.134
34509,3.594,0.000,1.378,2.052,5.656,7.284,0.000,35.110
34564,3.594,0.000,1.378,2.052,5.656,7.284,0.000,35.059
34619,3.594,0.000,1.378,2.052,5.656,7.284,0.000,35.093
34674,3.594,0.000,1.378,2.052,5.656,7.284,0.000,35.031
34729,3.595,0.000,1.378,2.052,5.656,7.284,0.000,35.037
34784,3.595,0.000,1.378,2.052,5.656,7.284,0.000,35.035
34839,3.595,0.000,1.378,2.052,5.656,7.284,0.000,35.079
34894,3.595,0.000,1.378,2.052,5.656,7.284,0.000,35.009
34949,3.595,0.000,1.378,2.052,5.656,7.284,0.000,34.995
35004,3.595,0.000,1.378,2.052,5.656,7.284,0.000,34.998
35059,3.595,0.000,1.378,2.052,5.656,7.284,0.000,35.026
35114,3.595,0.000,1.378,2.052,5.656,7.284,0.000,35.017
35169,3.595,0.000,1.378,2.052,5.656,7.284,0.000,35.018
35224,3.596,0.000,1.378,2.052,5.656,7.284,0.000,35.013
35279,3.596,0.000,1.378,2.052,5.656,7.284,0.000,35.051
35334,3.596,0.000,1.378,2.052,5.656,7.284,0.000,35.024
35389,3.596,0.000,1.378,2.052,5.656,7.284,0.000,34.996
35444,3.596,0.000,1.378,2.052,5.656,7.284,0.000,35.016
35499,3.596,0.000,1.378,2.052,5.656,7.284,0.000,35.001
35554,3.596,0.000,1.378,2.052,5.656,7.284,0.000,35.041
35609,3.596,0.000,1.378,2.052,5.656,7.284,0.000,35.024
35664,3.596,0.000,1.378,2.052,5.656,7.284,0.000,35.026
35719,3.596,0.000,1.378,2.052,5.656,7.284,0.000,35.058
35774,3.596,0.000,1.378,2.052,5.656,7.284,0.000,35.046
35829,3.596,0.000,1.378,2.052,5.656,7.284,0.000,35.007
35884,3.596,0.000,1.378,2.052,5.656,7.284,0.000,34.998
35939,3.596,0.000,1.378,2.052,5.656,7.284,0.000,34.974
35994,3.596,0.000,1.378,2.052,5.656,7.284,0.000,35.002
36049,3.596,0.000,1.378,2.052,5.656,7.284,0.000,35.086
36104,3.596,0.000,1.378,2.052,5.656,7.284,0.000,35.069
36159,3.596,0.000,1.378,2.052,5.656,7.284,0.000,35.019
36214,3.596,0.000,1.378,2.052,5.656,7.284,0.000,34.992
36269,3.596,0.000,1.378,2.052,5.656,7.284,0.000,35.033
36324,3.596,0.000,1.378,2.052,5.656,7.284,0.000,35.036
36379,3.597,0.000,1.378,2.052,5.656,7.284,0.000,34.990
36434,3.596,0.000,1.378,2.052,5.656,7.284,0.000,35.032
36489,3.597,0.000,1.378,2.052,5.656,7.284,0.000,35.031
36544,3.597,0.000,1.378,2.052,5.656,7.284,0.000,35.023
36599,3.597,0.000,1.378,2.052,5.656,7.284,0.000,35.032
36654,3.597,0.000,1.378,2.052,5.656,7.284,0.000,34.983
36709,3.597,0.000,1.378,2.052,5.656,7.284,0.000,35.028
36764,3.597,0.000,1.378,2.052,5.656,7.284,0.000,35.059
36819,3.597,0.000,1.378,2.052,5.656,7.284,0.000,34.994
36874,3.597,0.000,1.378,2.052,5.656,7.284,0.000,34.988
36929,3.597,0.000,1.378,2.052,5.656,7.284,0.000,34.992
36982,3.585,0.000,1.378,2.061,5.656,7.312,0.000,35.067
37036,3.598,0.000,1.385,2.061,5.679,7.312,0.000,35.139
37090,3.296,-3.350,1.385,2.090,5.679,7.408,-0.001,35.215
37145,3.260,-3.350,1.385,2.141,5.679,7.575,-0.001,35.713
37200,3.236,-3.350,1.385,2.192,5.679,7.742,0.000,36.110
37255,3.217,-3.350,1.385,2.243,5.679,7.907,0.000,36.645
37310,3.201,-3.350,1.385,2.295,5.679,8.071,0.000,37.020
37365,3.185,-3.350,1.385,2.346,5.679,8.234,0.000,37.460
37419,3.171,-3.350,1.385,2.396,5.679,8.394,0.000,37.812
37474,3.480,0.000,1.385,2.396,5.679,8.394,0.000,37.731
37529,3.498,0.000,1.385,2.396,5.679,8.394,0.000,37.395
37584,3.509,0.000,1.385,2.396,5.679,8.394,0.000,37.131
37639,3.515,0.000,1.385,2.396,5.679,8.394,0.000,36.854
37694,3.519,0.000,1.385,2.396,5.679,8.394,0.000,36.598
37749,3.522,0.000,1.385,2.396,5.679,8.394,0.000,36.395
37804,3.524,0.000,1.385,2.396,5.679,8.394,0.000,36.311
37859,3.526,0.000,1.385,2.396,5.679,8.394,0.000,36.116
37914,3.528,0.000,1.385,2.396,5.679,8.394,0.000,35.952
37969,3.530,0.000,1.385,2.396,5.679,8.394,0.000,35.846
38024,3.531,0.000,1.385,2.396,5.679,8.394,0.000,35.748
38079,3.532,0.000,1.385,2.396,5.679,8.394,0.000,35.681
38134,3.533,0.000,1.385,2.396,5.679,8.394,0.000,35.598
38189,3.534,0.000,1.385,2.396,5.679,8.394,0.000,35.485
38244,3.534,0.000,1.385,2.396,5.679,8.394,0.000,35.414
38299,3.535,0.000,1.385,2.396,5.679,8.394,0.000,35.380
38354,3.535,0.000,1.385,2.396,5.679,8.394,0.000,35.302
38409,3.536,0.000,1.385,2.396,5.679,8.394,0.000,35.292
38464,3.536,0.000,1.385,2.396,5.679,8.394,0.000,35.207
38519,3.536,0.000,1.385,2.396,5.679,8.394,0.000,35.246
38574,3.537,0.000,1.385,2.396,5.679,8.394,0.000,35.174
38629,3.537,0.000,1.385,2.396,5.679,8.394,0.000,35.149
38684,3.537,0.000,1.385,2.396,5.679,8.394,0.000,35.144
38739,3.537,0.000,1.385,2.396,5.679,8.394,0.000,35.100
38794,3.538,0.000,1.385,2.396,5.679,8.394,0.000,35.068
38849,3.538,0.000,1.385,2.396,5.679,8.394,0.000,35.100
38904,3.538,0.000,1.385,2.396,5.679,8.394,0.000,35.098
38959,3.538,0.000,1.385,2.396,5.679,8.394,0.000,35.055
39014,3.538,0.000,1.385,2.396,5.679,8.394,0.000,35.060
39069,3.538,0.000,1.385,2.396,5.679,8.394,0.000,35.069
39124,3.539,0.000,1.385,2.396,5.679,8.394,0.000,35.068
39179,3.539,0.000,1.385,2.396,5.679,8.394,0.000,35.006
39234,3.539,0.000,1.385,2.396,5.679,8.394,0.000,35.033
39289,3.539,0.000,1.385,2.396,5.679,8.394,0.000,35.018
39344,3.539,0.000,1.385,2.396,5.679,8.394,0.000,35.002
39399,3.539,0.000,1.385,2.396,5.679,8.394,0.000,35.013
39454,3.539,0.000,1.385,2.396,5.679,8.394,0.000,35.043
39509,3.539,0.000,1.385,2.396,5.679,8.394,0.000,34.960
39564,3.539,0.000,1.385,2.396,5.679,8.394,0.000,34.976
39619,3.540,0.000,1.385,2.396,5.679,8.394,0.000,34.969
39674,3.540,0.000,1.385,2.396,5.679,8.394,0.000,34.994
39729,3.540,0.000,1.385,2.396,5.679,8.394,0.000,34.991
39784,3.540,0.000,1.385,2.396,5.679,8.394,0.000,34.965
39839,3.540,0.000,1.385,2.396,5.679,8.394,0.000,34.993
39894,3.540,0.000,1.385,2.396,5.679,8.394,0.000,34.973
39949,3.540,0.000,1.385,2.396,5.679,8.394,0.000,34.985
40004,3.540,0.000,1.385,2.396,5.679,8.394,0.000,34.999
40059,3.540,0.000,1.385,2.396,5.679,8.394,0.000,34.960
40114,3.540,0.000,1.385,2.396,5.679,8.394,0.000,34.966
40169,3.540,0.000,1.385,2.396,5.679,8.394,0.000,34.930
40224,3.540,0.000,1.385,2.396,5.679,8.394,0.000,34.958
40279,3.540,0.000,1.385,2.396,5.679,8.394,0.000,34.945
40334,3.541,0.000,1.385,2.396,5.679,8.394,0.000,34.972
40389,3.541,0.000,1.385,2.396,5.679,8.394,0.000,35.005
40444,3.541,0.000,1.385,2.396,5.679,8.394,0.000,35.016
40499,3.541,0.000,1.385,2.396,5.679,8.394,0.000,35.025
40554,3.541,0.000,1.385,2.396,5.679,8.394,0.000,34.954
40609,3.541,0.000,1.385,2.396,5.679,8.394,0.000,34.956
40664,3.541,0.000,1.385,2.396,5.679,8.394,0.000,34.963
40719,3.541,0.000,1.385,2.396,5.679,8.394,0.000,35.000
40774,3.541,0.000,1.385,2.396,5.679,8.394,0.000,34.965
40829,3.541,0.000,1.385,2.396,5.679,8.394,0.000,34.984
40884,3.541,0.000,1.385,2.396,5.679,8.394,0.000,34.959
40939,3.541,0.000,1.385,2.396,5.679,8.394,0.000,35.001
40994,3.541,0.000,1.385,2.396,5.679,8.394,0.000,34.938
41047,3.530,0.000,1.385,2.404,5.679,8.422,0.000,34.999
41100,3.543,0.000,1.391,2.404,5.703,8.422,0.000,35.062
41154,3.225,-3.350,1.391,2.437,5.703,8.528,-0.001,35.233
41209,3.183,-3.350,1.391,2.488,5.703,8.692,-0.001,35.787
41264,3.151,-3.350,1.391,2.539,5.703,8.854,-0.001,36.337
41319,3.127,-3.350,1.391,2.591,5.703,9.015,0.000,36.899
41374,3.106,-3.350,1.391,2.642,5.703,9.174,0.000,37.408
41429,3.085,-3.350,1.391,2.693,5.703,9.332,0.000,37.872
41483,3.349,0.000,1.391,2.739,5.703,9.476,0.003,38.270
41538,3.390,0.000,1.391,2.739,5.703,9.476,0.000,38.125
41593,3.398,0.000,1.391,2.739,5.703,9.476,0.000,37.826
41648,3.407,0.000,1.391,2.739,5.703,9.476,0.000,37.534
41703,3.415,0.000,1.391,2.739,5.703,9.476,0.000,37.292
41758,3.420,0.000,1.391,2.739,5.703,9.476,0.000,37.070
41813,3.424,0.000,1.391,2.739,5.703,9.476,0.000,36.777
41868,3.428,0.000,1.391,2.739,5.703,9.476,0.000,36.571
41923,3.430,0.000,1.391,2.739,5.703,9.476,0.000,36.455
41978,3.432,0.000,1.391,2.739,5.703,9.476,0.000,36.300
42033,3.433,0.000,1.391,2.739,5.703,9.476,0.000,36.135
42088,3.434,0.000,1.391,2.739,5.703,9.476,0.000,36.022
42143,3.435,0.000,1.391,2.739,5.703,9.476,0.000,35.885
42198,3.436,0.000,1.391,2.739,5.703,9.476,0.000,35.768
42253,3.437,0.000,1.391,2.739,5.703,9.476,0.000,35.673
42308,3.437,0.000,1.391,2.739,5.703,9.476,0.000,35.612
42363,3.438,0.000,1.391,2.739,5.703,9.476,0.000,35.541
42418,3.438,0.000,1.391,2.739,5.703,9.476,0.000,35.439
42473,3.438,0.000,1.391,2.739,5.703,9.476,0.000,35.416
42528,3.439,0.000,1.391,2.739,5.703,9.476,0.000,35.339
42583,3.439,0.000,1.391,2.739,5.703,9.476,0.000,35.277
42638,3.439,0.000,1.391,2.739,5.703,9.476,0.000,35.250
42693,3.439,0.000,1.391,2.739,5.703,9.476,0.000,35.200
42748,3.440,0.000,1.391,2.739,5.703,9.476,0.000,35.138
42803,3.440,0.000,1.391,2.739,5.703,9.476,0.000,35.143
42858,3.440,0.000,1.391,2.739,5.703,9.476,0.000,35.151
42913,3.440,0.000,1.391,2.739,5.703,9.476,0.000,35.103
42968,3.440,0.000,1.391,2.739,5.703,9.476,0.000,35.153
43023,3.440,0.000,1.391,2.739,5.703,9.476,0.000,35.074
43078,3.440,0.000,1.391,2.739,5.703,9.476,0.000,35.059
43133,3.440,0.000,1.391,2.739,5.703,9.476,0.000,35.008
43188,3.441,0.000,1.391,2.739,5.703,9.476,0.000,34.994
43243,3.441,0.000,1.391,2.739,5.703,9.476,0.000,35.021
43298,3.441,0.000,1.391,2.739,5.703,9.476,0.000,35.040
43353,3.441,0.000,1.391,2.739,5.703,9.476,0.000,34.959
43408,3.441,0.000,1.391,2.739,5.703,9.476,0.000,34.947
43463,3.441,0.000,1.391,2.739,5.703,9.476,0.000,34.955
43518,3.441,0.000,1.391,2.739,5.703,9.476,0.000,34.949
43573,3.441,0.000,1.391,2.739,5.703,9.476,0.000,34.979
43628,3.441,0.000,1.391,2.739,5.703,9.476,0.000,34.936
43683,3.441,0.000,1.391,2.739,5.703,9.476,0.000,34.920
43738,3.441,0.000,1.391,2.739,5.703,9.476,0.000,34.988
43793,3.441,0.000,1.391,2.739,5.703,9.476,0.000,34.946
43848,3.442,0.000,1.391,2.739,5.703,9.476,0.000,34.979
43903,3.442,0.000,1.391,2.739,5.703,9.476,0.000,34.918
43958,3.442,0.000,1.391,2.739,5.703,9.476,0.000,34.879
44013,3.442,0.000,1.391,2.739,5.703,9.476,0.000,34.923
44068,3.442,0.000,1.391,2.739,5.703,9.476,0.000,34.909
44123,3.442,0.000,1.391,2.739,5.703,9.476,0.000,34.870
44178,3.442,0.000,1.391,2.739,5.703,9.476,0.000,34.910
44233,3.442,0.000,1.391,2.739,5.703,9.476,0.000,34.910
44288,3.442,0.000,1.391,2.739,5.703,9.476,0.000,34.907
44343,3.442,0.000,1.391,2.739,5.703,9.476,0.000,34.955
44398,3.442,0.000,1.391,2.739,5.703,9.476,0.000,34.930
44453,3.442,0.000,1.391,2.739,5.703,9.476,0.000,34.969
44508,3.442,0.000,1.391,2.739,5.703,9.476,0.000,34.942
44563,3.442,0.000,1.391,2.739,5.703,9.476,0.000,34.921
44618,3.442,0.000,1.391,2.739,5.703,9.476,0.000,34.896
44673,3.442,0.000,1.391,2.739,5.703,9.476,0.000,34.932
44728,3.442,0.000,1.391,2.739,5.703,9.476,0.000,34.960
44783,3.442,0.000,1.391,2.739,5.703,9.476,0.000,34.958
44838,3.442,0.000,1.391,2.739,5.703,9.476,0.000,35.003
44893,3.442,0.000,1.391,2.739,5.703,9.476,0.000,34.959
44948,3.442,0.000,1.391,2.739,5.703,9.476,0.000,34.986
45003,3.442,0.000,1.391,2.739,5.703,9.476,0.000,34.963
45058,3.443,0.000,1.391,2.739,5.703,9.476,0.000,34.980
45111,3.430,0.000,1.391,2.748,5.703,9.502,0.000,34.995
45164,3.444,0.000,1.397,2.748,5.725,9.503,0.000,34.996
45218,3.087,-3.350,1.397,2.784,5.725,9.616,-0.001,35.349
45273,3.039,-3.350,1.397,2.835,5.725,9.772,-0.001,35.954
45328,3.003,-3.350,1.397,2.887,5.725,9.927,-0.001,36.591
45383,2.966,-3.350,1.397,2.938,5.725,10.080,-0.001,37.242
45438,2.926,-3.350,1.397,2.989,5.725,10.231,-0.001,37.854
45493,2.880,-3.350,1.397,3.040,5.725,10.379,-0.001,38.522
45547,3.243,0.000,1.397,3.083,5.725,10.502,0.003,39.161
45602,3.300,0.000,1.397,3.083,5.725,10.502,0.001,38.827
45657,3.314,0.000,1.397,3.083,5.725,10.502,0.000,38.388
45712,3.319,0.000,1.397,3.083,5.725,10.502,0.000,37.964
45767,3.321,0.000,1.397,3.083,5.725,10.502,0.000,37.601
45822,3.323,0.000,1.397,3.083,5.725,10.502,0.000,37.294
45877,3.324,0.000,1.397,3.083,5.725,10.502,0.000,37.072
45932,3.325,0.000,1.397,3.083,5.725,10.502,0.000,36.771
45987,3.325,0.000,1.397,3.083,5.725,10.502,0.000,36.576
46042,3.326,0.000,1.397,3.083,5.725,10.502,0.000,36.449
46097,3.326,0.000,1.397,3.083,5.725,10.502,0.000,36.228
46152,3.327,0.000,1.397,3.083,5.725,10.502,0.000,36.107
46207,3.327,0.000,1.397,3.083,5.725,10.502,0.000,35.953
46262,3.327,0.000,1.397,3.083,5.725,10.502,0.000,35.853
46317,3.327,0.000,1.397,3.083,5.725,10.502,0.000,35.721
46372,3.328,0.000,1.397,3.083,5.725,10.502,0.000,35.633
46427,3.328,0.000,1.397,3.083,5.725,10.502,0.000,35.554
46482,3.328,0.000,1.397,3.083,5.725,10.502,0.000,35.458
46537,3.328,0.000,1.397,3.083,5.725,10.502,0.000,35.428
46592,3.328,0.000,1.397,3.083,5.725,10.502,0.000,35.348
46647,3.329,0.000,1.397,3.083,5.725,10.502,0.000,35.310
46702,3.329,0.000,1.397,3.083,5.725,10.502,0.000,35.255
46757,3.329,0.000,1.397,3.083,5.725,10.502,0.000,35.182
46812,3.329,0.000,1.397,3.083,5.725,10.502,0.000,35.154
46867,3.329,0.000,1.397,3.083,5.725,10.502,0.000,35.133
46922,3.329,0.000,1.397,3.083,5.725,10.502,0.000,35.047
46977,3.329,0.000,1.397,3.083,5.725,10.502,0.000,35.061
47032,3.329,0.000,1.397,3.083,5.725,10.502,0.000,35.061
47087,3.329,0.000,1.397,3.083,5.725,10.502,0.000,35.015
47142,3.330,0.000,1.397,3.083,5.725,10.502,0.000,35.046
47197,3.330,0.000,1.397,3.083,5.725,10.502,0.000,35.039
47252,3.330,0.000,1.397,3.083,5.725,10.502,0.000,34.948
47307,3.330,0.000,1.397,3.083,5.725,10.502,0.000,34.991
47362,3.330,0.000,1.397,3.083,5.725,10.502,0.000,34.945
47417,3.330,0.000,1.397,3.083,5.725,10.502,0.000,34.910
47472,3.330,0.000,1.397,3.083,5.725,10.502,0.000,34.977
47527,3.330,0.000,1.397,3.083,5.725,10.502,0.000,34.929
47582,3.330,0.000,1.397,3.083,5.725,10.502,0.000,34.933
47637,3.330,0.000,1.397,3.083,5.725,10.502,0.000,34.950
47692,3.330,0.000,1.397,3.083,5.725,10.502,0.000,34.900
47747,3.331,0.000,1.397,3.083,5.725,10.502,0.000,34.924
47802,3.331,0.000,1.397,3.083,5.725,10.502,0.000,34.890
47857,3.331,0.000,1.397,3.083,5.725,10.502,0.000,34.872
47912,3.331,0.000,1.397,3.083,5.725,10.502,0.000,34.921
47967,3.331,0.000,1.397,3.083,5.725,10.502,0.000,34.882
48022,3.331,0.000,1.397,3.083,5.725,10.502,0.000,34.902
48077,3.331,0.000,1.397,3.083,5.725,10.502,0.000,34.961
48132,3.331,0.000,1.397,3.083,5.725,10.502,0.000,34.950
48187,3.331,0.000,1.397,3.083,5.725,10.502,0.000,34.910
48242,3.331,0.000,1.397,3.083,5.725,10.502,0.000,34.923
48297,3.331,0.000,1.397,3.083,5.725,10.502,0.000,34.896
48352,3.331,0.000,1.397,3.083,5.725,10.502,0.000,34.902
48407,3.331,0.000,1.397,3.083,5.725,10.502,0.000,34.853
48462,3.331,0.000,1.397,3.083,5.725,10.502,0.000,34.877
48517,3.331,0.000,1.397,3.083,5.725,10.502,0.000,34.845
48572,3.331,0.000,1.397,3.083,5.725,10.502,0.000,34.865
48627,3.331,0.000,1.397,3.083,5.725,10.502,0.000,34.887
48682,3.331,0.000,1.397,3.083,5.725,10.502,0.000,34.864
48737,3.331,0.000,1.397,3.083,5.725,10.502,0.000,34.886
48792,3.331,0.000,1.397,3.083,5.725,10.502,0.000,34.908
48847,3.332,0.000,1.397,3.083,5.725,10.502,0.000,34.908
48902,3.332,0.000,1.397,3.083,5.725,10.502,0.000,34.902
48957,3.332,0.000,1.397,3.083,5.725,10.502,0.000,34.882
49012,3.332,0.000,1.397,3.083,5.725,10.502,0.000,34.898
49067,3.332,0.000,1.397,3.083,5.725,10.502,0.000,34.954
49122,3.332,0.000,1.397,3.083,5.725,10.502,0.000,34.931
49176,3.316,0.000,1.397,3.091,5.725,10.526,0.000,35.009
49229,3.334,0.000,1.403,3.091,5.748,10.527,0.000,35.024
49283,2.732,-3.350,1.403,3.131,5.748,10.640,-0.003,35.733
49338,2.575,-3.350,1.403,3.183,5.748,10.775,-0.003,37.109
49368,2.491,-3.350,1.403,3.210,5.748,10.846,-0.003,38.068