File: data/T35/HPPC/5.csv
time_s,voltage_v,current_a,chargecapacity_ah,dischargecapacity_ah,charge_energy_wh,discharge_energy_wh,voltagedot_v_per_s,temp_degc
1,3.769,0.000,0.000,0.000,0.000,0.000,0.000,34.299
55,3.769,0.000,0.000,0.000,0.000,0.000,0.000,34.316
109,3.769,0.000,0.000,0.000,0.000,0.000,0.000,34.310
163,3.769,0.000,0.000,0.000,0.000,0.000,0.000,34.354
217,3.769,0.000,0.000,0.000,0.000,0.000,0.000,34.319
271,3.769,0.000,0.000,0.000,0.000,0.000,0.000,34.281
325,3.769,0.000,0.000,0.000,0.000,0.000,0.000,34.304
379,3.769,0.000,0.000,0.000,0.000,0.000,0.000,34.346
433,3.769,0.000,0.000,0.000,0.000,0.000,0.000,34.351
487,3.769,0.000,0.000,0.000,0.000,0.000,0.000,34.295
541,3.769,0.000,0.000,0.000,0.000,0.000,0.000,34.287
595,3.769,0.000,0.000,0.000,0.000,0.000,0.000,34.295
649,3.769,0.000,0.000,0.000,0.000,0.000,0.000,34.317
703,3.769,0.000,0.000,0.000,0.000,0.000,0.000,34.301
757,3.769,0.000,0.000,0.000,0.000,0.000,0.000,34.329
811,3.769,0.000,0.000,0.000,0.000,0.000,0.000,34.320
865,3.769,0.000,0.000,0.000,0.000,0.000,0.000,34.349
919,3.769,0.000,0.000,0.000,0.000,0.000,0.000,34.375
973,3.769,0.000,0.000,0.000,0.000,0.000,0.000,34.375
1027,3.769,0.000,0.000,0.000,0.000,0.000,0.000,34.356
1081,3.769,0.000,0.000,0.000,0.000,0.000,0.000,34.316
1135,3.769,0.000,0.000,0.000,0.000,0.000,0.000,34.424
1189,3.769,0.000,0.000,0.000,0.000,0.000,0.000,34.473
1243,3.769,0.000,0.000,0.000,0.000,0.000,0.000,34.439
1297,3.770,0.000,0.000,0.000,0.000,0.000,0.000,34.449
1351,3.769,0.000,0.000,0.000,0.000,0.000,0.000,34.497
1405,3.769,0.000,0.000,0.000,0.000,0.000,0.000,34.418
1459,3.769,0.000,0.000,0.000,0.000,0.000,0.000,34.420
1513,3.769,0.000,0.000,0.000,0.000,0.000,0.000,34.429
1567,3.770,0.000,0.000,0.000,0.000,0.000,0.000,34.439
1621,3.769,0.000,0.000,0.000,0.000,0.000,0.000,34.439
1675,3.769,0.000,0.000,0.000,0.000,0.000,0.000,34.425
1729,3.769,0.000,0.000,0.000,0.000,0.000,0.000,34.419
1783,3.769,0.000,0.000,0.000,0.000,0.000,0.000,34.382
1837,3.769,0.000,0.000,0.000,0.000,0.000,0.000,34.371
1891,3.769,0.000,0.000,0.000,0.000,0.000,0.000,34.377
1945,3.769,0.000,0.000,0.000,0.000,0.000,0.000,34.367
1999,3.769,0.000,0.000,0.000,0.000,0.000,0.000,34.355
2053,3.769,0.000,0.000,0.000,0.000,0.000,0.000,34.345
2107,3.769,0.000,0.000,0.000,0.000,0.000,0.000,34.350
2161,3.770,0.000,0.000,0.000,0.000,0.000,0.000,34.316
2215,3.770,0.000,0.000,0.000,0.000,0.000,0.000,34.339
2269,3.770,0.000,0.000,0.000,0.000,0.000,0.000,34.313
2323,3.770,0.000,0.000,0.000,0.000,0.000,0.000,34.290
2377,3.770,0.000,0.000,0.000,0.000,0.000,0.000,34.291
2431,3.769,0.000,0.000,0.000,0.000,0.000,0.000,34.319
2485,3.769,0.000,0.000,0.000,0.000,0.000,0.000,34.314
2539,3.770,0.000,0.000,0.000,0.000,0.000,0.000,34.309
2593,3.770,0.000,0.000,0.000,0.000,0.000,0.000,34.302
2647,3.770,0.000,0.000,0.000,0.000,0.000,0.000,34.282
2701,3.770,0.000,0.000,0.000,0.000,0.000,0.000,34.290
2755,3.770,0.000,0.000,0.000,0.000,0.000,0.000,34.312
2809,3.769,0.000,0.000,0.000,0.000,0.000,0.000,34.259
2863,3.770,0.000,0.000,0.000,0.000,0.000,0.000,34.265
2917,3.769,0.000,0.000,0.000,0.000,0.000,0.000,34.276
2971,3.770,0.000,0.000,0.000,0.000,0.000,0.000,34.260
3025,3.770,0.000,0.000,0.000,0.000,0.000,0.000,34.267
3079,3.770,0.000,0.000,0.000,0.000,0.000,0.000,34.253
3133,3.770,0.000,0.000,0.000,0.000,0.000,0.000,34.262
3187,3.769,0.000,0.000,0.000,0.000,0.000,0.000,34.266
3241,3.769,0.000,0.000,0.000,0.000,0.000,0.000,34.266
3295,3.770,0.000,0.000,0.000,0.000,0.000,0.000,34.256
3349,3.770,0.000,0.000,0.000,0.000,0.000,0.000,34.274
3403,3.770,0.000,0.000,0.000,0.000,0.000,0.000,34.243
3457,3.770,0.000,0.000,0.000,0.000,0.000,0.000,34.265
3511,3.770,0.000,0.000,0.000,0.000,0.000,0.000,34.239
3565,3.770,0.000,0.000,0.000,0.000,0.000,0.000,34.250
3618,3.864,1.625,0.008,0.000,0.031,0.000,0.000,34.256
3672,3.878,1.625,0.033,0.000,0.126,0.000,0.000,34.429
3726,3.887,1.625,0.057,0.000,0.220,0.000,0.000,34.555
3780,3.895,1.625,0.081,0.000,0.315,0.000,0.000,34.646
3834,3.903,1.625,0.106,0.000,0.410,0.000,0.000,34.755
3888,3.911,1.625,0.130,0.000,0.506,0.000,0.000,34.854
3942,3.918,1.625,0.154,0.000,0.601,0.000,0.000,34.965
3996,3.926,1.625,0.179,0.000,0.697,0.000,0.000,35.037
4050,3.934,1.625,0.203,0.000,0.792,0.000,0.000,35.135
4104,3.942,1.625,0.228,0.000,0.888,0.000,0.000,35.192
4158,3.949,1.625,0.252,0.000,0.985,0.000,0.000,35.254
4212,3.957,1.625,0.276,0.000,1.081,0.000,0.000,35.314
4266,3.965,1.625,0.301,0.000,1.178,0.000,0.000,35.371
4320,3.972,1.625,0.325,0.000,1.274,0.000,0.000,35.420
4374,3.980,1.625,0.349,0.000,1.371,0.000,0.000,35.501
4428,3.987,1.625,0.374,0.000,1.468,0.000,0.000,35.530
4482,3.995,1.625,0.398,0.000,1.566,0.000,0.000,35.581
4536,4.002,1.625,0.423,0.000,1.663,0.000,0.000,35.641
4590,4.010,1.625,0.447,0.000,1.761,0.000,0.000,35.685
4644,4.017,1.625,0.471,0.000,1.859,0.000,0.000,35.774
4698,4.025,1.625,0.496,0.000,1.957,0.000,0.000,35.761
4752,4.032,1.625,0.520,0.000,2.055,0.000,0.000,35.793
4806,4.040,1.625,0.544,0.000,2.153,0.000,0.000,35.866
4860,4.048,1.625,0.569,0.000,2.252,0.000,0.000,35.927
4914,4.056,1.625,0.593,0.000,2.351,0.000,0.000,35.938
4968,4.064,1.625,0.618,0.000,2.450,0.000,0.000,36.004
5022,4.073,1.625,0.642,0.000,2.549,0.000,0.000,36.046
5076,4.082,1.625,0.666,0.000,2.648,0.000,0.000,36.082
5130,4.091,1.625,0.691,0.000,2.748,0.000,0.000,36.142
5184,4.100,1.625,0.715,0.000,2.848,0.000,0.000,36.165
5238,4.110,1.625,0.740,0.000,2.948,0.000,0.000,36.168
5292,4.120,1.625,0.764,0.000,3.048,0.000,0.000,36.249
5346,4.130,1.625,0.788,0.000,3.149,0.000,0.000,36.254
5400,4.140,1.625,0.813,0.000,3.249,0.000,0.000,36.285
5454,4.151,1.625,0.837,0.000,3.351,0.000,0.000,36.371
5508,4.161,1.625,0.861,0.000,3.452,0.000,0.000,36.360
5562,4.172,1.625,0.886,0.000,3.553,0.000,0.000,36.394
5616,4.183,1.625,0.910,0.000,3.655,0.000,0.000,36.422
5670,4.193,1.625,0.935,0.000,3.757,0.000,0.000,36.417
5723,4.200,1.571,0.958,0.000,3.858,0.000,0.000,36.485
5777,4.200,1.448,0.981,0.000,3.953,0.000,0.000,36.494
5831,4.200,1.356,1.002,0.000,4.041,0.000,0.000,36.484
5885,4.200,1.274,1.022,0.000,4.124,0.000,0.000,36.437
5939,4.200,1.203,1.040,0.000,4.202,0.000,0.000,36.409
5993,4.200,1.139,1.058,0.000,4.275,0.000,0.000,36.391
6047,4.200,1.079,1.074,0.000,4.345,0.000,0.000,36.314
6101,4.200,1.024,1.090,0.000,4.411,0.000,0.000,36.237
6155,4.200,0.973,1.105,0.000,4.474,0.000,0.000,36.136
6209,4.200,0.925,1.119,0.000,4.534,0.000,0.000,36.123
6263,4.200,0.879,1.133,0.000,4.591,0.000,0.000,36.002
6317,4.200,0.836,1.146,0.000,4.645,0.000,0.000,35.898
6371,4.200,0.793,1.158,0.000,4.696,0.000,0.000,35.879
6425,4.200,0.754,1.170,0.000,4.745,0.000,0.000,35.776
6479,4.200,0.715,1.181,0.000,4.791,0.000,0.000,35.636
6533,4.200,0.679,1.191,0.000,4.835,0.000,0.000,35.619
6587,4.200,0.643,1.201,0.000,4.877,0.000,0.000,35.584
6641,4.200,0.609,1.210,0.000,4.916,0.000,0.000,35.466
6695,4.200,0.576,1.219,0.000,4.953,0.000,0.000,35.407
6749,4.200,0.545,1.228,0.000,4.989,0.000,0.000,35.328
6803,4.200,0.514,1.236,0.000,5.022,0.000,0.000,35.300
6857,4.200,0.486,1.243,0.000,5.053,0.000,0.000,35.214
6911,4.200,0.458,1.250,0.000,5.083,0.000,0.000,35.126
6965,4.200,0.431,1.257,0.000,5.111,0.000,0.000,35.095
7019,4.200,0.406,1.263,0.000,5.137,0.000,0.000,35.045
7073,4.200,0.382,1.269,0.000,5.162,0.000,0.000,34.969
7127,4.200,0.360,1.275,0.000,5.186,0.000,0.000,34.913
7181,4.200,0.338,1.280,0.000,5.208,0.000,0.000,34.858
7235,4.200,0.318,1.285,0.000,5.228,0.000,0.000,34.848
7289,4.200,0.299,1.289,0.000,5.248,0.000,0.000,34.768
7343,4.200,0.280,1.294,0.000,5.266,0.000,0.000,34.773
7397,4.200,0.264,1.298,0.000,5.283,0.000,0.000,34.679
7451,4.200,0.247,1.302,0.000,5.299,0.000,0.000,34.677
7505,4.200,0.233,1.305,0.000,5.314,0.000,0.000,34.635
7559,4.200,0.218,1.309,0.000,5.328,0.000,0.000,34.633
7613,4.200,0.205,1.312,0.000,5.342,0.000,0.000,34.579
7667,4.200,0.193,1.315,0.000,5.354,0.000,0.000,34.522
7721,4.200,0.181,1.318,0.000,5.366,0.000,0.000,34.532
7775,4.200,0.170,1.320,0.000,5.377,0.000,0.000,34.546
7829,4.200,0.159,1.323,0.000,5.388,0.000,0.000,34.471
7883,4.200,0.151,1.325,0.000,5.397,0.000,0.000,34.453
7937,4.200,0.142,1.327,0.000,5.406,0.000,0.000,34.453
7991,4.200,0.133,1.329,0.000,5.415,0.000,0.000,34.402
8045,4.200,0.126,1.331,0.000,5.423,0.000,0.000,34.394
8099,4.200,0.119,1.333,0.000,5.431,0.000,0.000,34.408
8153,4.200,0.112,1.335,0.000,5.438,0.000,0.000,34.361
8207,4.200,0.105,1.336,0.000,5.445,0.000,0.000,34.378
8261,4.200,0.099,1.338,0.000,5.451,0.000,0.000,34.371
8315,4.200,0.094,1.339,0.000,5.458,0.000,0.000,34.310
8369,4.200,0.089,1.341,0.000,5.463,0.000,0.000,34.318
8423,4.200,0.084,1.342,0.000,5.469,0.000,0.000,34.298
8477,4.200,0.079,1.343,0.000,5.474,0.000,0.000,34.306
8531,4.200,0.075,1.344,0.000,5.479,0.000,0.000,34.292
8585,4.200,0.072,1.345,0.000,5.483,0.000,0.000,34.261
8639,4.200,0.067,1.347,0.000,5.488,0.000,0.000,34.257
8693,4.195,0.000,1.347,0.000,5.490,0.000,0.000,34.266
8747,4.194,0.000,1.347,0.000,5.490,0.000,0.000,34.259
8801,4.193,0.000,1.347,0.000,5.490,0.000,0.000,34.284
8855,4.192,0.000,1.347,0.000,5.490,0.000,0.000,34.221
8909,4.192,0.000,1.347,0.000,5.490,0.000,0.000,34.223
8963,4.191,0.000,1.347,0.000,5.490,0.000,0.000,34.236
9017,4.191,0.000,1.347,0.000,5.490,0.000,0.000,34.235
9071,4.190,0.000,1.347,0.000,5.490,0.000,0.000,34.261
9125,4.190,0.000,1.347,0.000,5.490,0.000,0.000,34.259
9179,4.190,0.000,1.347,0.000,5.490,0.000,0.000,34.229
9233,4.189,0.000,1.347,0.000,5.490,0.000,0.000,34.180
9287,4.189,0.000,1.347,0.000,5.490,0.000,0.000,34.211
9341,4.189,0.000,1.347,0.000,5.490,0.000,0.000,34.194
9395,4.189,0.000,1.347,0.000,5.490,0.000,0.000,34.216
9449,4.188,0.000,1.347,0.000,5.490,0.000,0.000,34.246
9503,4.188,0.000,1.347,0.000,5.490,0.000,0.000,34.203
9557,4.188,0.000,1.347,0.000,5.490,0.000,0.000,34.198
9611,4.188,0.000,1.347,0.000,5.490,0.000,0.000,34.248
9665,4.187,0.000,1.347,0.000,5.490,0.000,0.000,34.189
9719,4.187,0.000,1.347,0.000,5.490,0.000,0.000,34.138
9773,4.187,0.000,1.347,0.000,5.490,0.000,0.000,34.163
9827,4.187,0.000,1.347,0.000,5.490,0.000,0.000,34.175
9881,4.187,0.000,1.347,0.000,5.490,0.000,0.000,34.217
9935,4.187,0.000,1.347,0.000,5.490,0.000,0.000,34.190
9989,4.187,0.000,1.347,0.000,5.490,0.000,0.000,34.155
10043,4.186,0.000,1.347,0.000,5.490,0.000,0.000,34.207
10097,4.186,0.000,1.347,0.000,5.490,0.000,0.000,34.163
10151,4.186,0.000,1.347,0.000,5.490,0.000,0.000,34.141
10205,4.186,0.000,1.347,0.000,5.490,0.000,0.000,34.200
10259,4.186,0.000,1.347,0.000,5.490,0.000,0.000,34.161
10313,4.186,0.000,1.347,0.000,5.490,0.000,0.000,34.183
10367,4.186,0.000,1.347,0.000,5.490,0.000,0.000,34.177
10421,4.186,0.000,1.347,0.000,5.490,0.000,0.000,34.211
10475,4.186,0.000,1.347,0.000,5.490,0.000,0.000,34.186
10529,4.185,0.000,1.347,0.000,5.490,0.000,0.000,34.195
10583,4.185,0.000,1.347,0.000,5.490,0.000,0.000,34.181
10637,4.185,0.000,1.347,0.000,5.490,0.000,0.000,34.198
10691,4.185,0.000,1.347,0.000,5.490,0.000,0.000,34.211
10745,4.185,0.000,1.347,0.000,5.490,0.000,0.000,34.181
10799,4.185,0.000,1.347,0.000,5.490,0.000,0.000,34.205
10853,4.185,0.000,1.347,0.000,5.490,0.000,0.000,34.136
10907,4.185,0.000,1.347,0.000,5.490,0.000,0.000,34.181
10961,4.185,0.000,1.347,0.000,5.490,0.000,0.000,34.165
11015,4.185,0.000,1.347,0.000,5.490,0.000,0.000,34.138
11069,4.185,0.000,1.347,0.000,5.490,0.000,0.000,34.126
11123,4.185,0.000,1.347,0.000,5.490,0.000,0.000,34.104
11177,4.185,0.000,1.347,0.000,5.490,0.000,0.000,34.174
11231,4.184,0.000,1.347,0.000,5.490,0.000,0.000,34.160
11285,4.184,0.000,1.347,0.000,5.490,0.000,0.000,34.186
11339,4.184,0.000,1.347,0.000,5.490,0.000,0.000,34.192
11393,4.184,0.000,1.347,0.000,5.490,0.000,0.000,34.160
11447,4.184,0.000,1.347,0.000,5.490,0.000,0.000,34.139
11501,4.184,0.000,1.347,0.000,5.490,0.000,0.000,34.141
11555,4.184,0.000,1.347,0.000,5.490,0.000,0.000,34.151
11609,4.184,0.000,1.347,0.000,5.490,0.000,0.000,34.133
11663,4.184,0.000,1.347,0.000,5.490,0.000,0.000,34.163
11717,4.184,0.000,1.347,0.000,5.490,0.000,0.000,34.204
11771,4.184,0.000,1.347,0.000,5.490,0.000,0.000,34.184
11825,4.184,0.000,1.347,0.000,5.490,0.000,0.000,34.185
11879,4.184,0.000,1.347,0.000,5.490,0.000,0.000,34.222
11933,4.184,0.000,1.347,0.000,5.490,0.000,0.000,34.168
11987,4.184,0.000,1.347,0.000,5.490,0.000,0.000,34.184
12041,4.184,0.000,1.347,0.000,5.490,0.000,0.000,34.181
12095,4.184,0.000,1.347,0.000,5.490,0.000,0.000,34.222
12149,4.184,0.000,1.347,0.000,5.490,0.000,0.000,34.330
12203,4.183,0.000,1.347,0.000,5.490,0.000,0.000,34.370
12257,4.183,0.000,1.347,0.000,5.490,0.000,0.000,34.288
12310,3.942,-3.350,1.347,0.035,5.490,0.140,-0.001,34.481
12364,3.915,-3.350,1.347,0.086,5.490,0.338,0.000,34.995
12418,3.897,-3.350,1.347,0.136,5.490,0.534,0.000,35.552
12472,3.882,-3.350,1.347,0.186,5.490,0.729,0.000,35.923
12526,3.866,-3.350,1.347,0.236,5.490,0.924,0.000,36.229
12580,3.851,-3.350,1.347,0.287,5.490,1.118,0.000,36.581
12633,3.988,0.000,1.347,0.335,5.490,1.304,0.010,36.930
12687,4.035,0.000,1.347,0.335,5.490,1.304,0.000,36.854
12741,4.047,0.000,1.347,0.335,5.490,1.304,0.000,36.650
12795,4.052,0.000,1.347,0.335,5.490,1.304,0.000,36.372
12849,4.054,0.000,1.347,0.335,5.490,1.304,0.000,36.171
12903,4.055,0.000,1.347,0.335,5.490,1.304,0.000,35.938
12957,4.055,0.000,1.347,0.335,5.490,1.304,0.000,35.822
13011,4.056,0.000,1.347,0.335,5.490,1.304,0.000,35.659
13065,4.056,0.000,1.347,0.335,5.490,1.304,0.000,35.548
13119,4.056,0.000,1.347,0.335,5.490,1.304,0.000,35.341
13173,4.057,0.000,1.347,0.335,5.490,1.304,0.000,35.227
13227,4.057,0.000,1.347,0.335,5.490,1.304,0.000,35.124
13281,4.057,0.000,1.347,0.335,5.490,1.304,0.000,34.994
13335,4.057,0.000,1.347,0.335,5.490,1.304,0.000,34.926
13389,4.057,0.000,1.347,0.335,5.490,1.304,0.000,34.879
13443,4.057,0.000,1.347,0.335,5.490,1.304,0.000,34.767
13497,4.058,0.000,1.347,0.335,5.490,1.304,0.000,34.707
13551,4.058,0.000,1.347,0.335,5.490,1.304,0.000,34.689
13605,4.058,0.000,1.347,0.335,5.490,1.304,0.000,34.618
13659,4.058,0.000,1.347,0.335,5.490,1.304,0.000,34.581
13713,4.058,0.000,1.347,0.335,5.490,1.304,0.000,34.512
13767,4.058,0.000,1.347,0.335,5.490,1.304,0.000,34.517
13821,4.058,0.000,1.347,0.335,5.490,1.304,0.000,34.441
13875,4.058,0.000,1.347,0.335,5.490,1.304,0.000,34.443
13929,4.058,0.000,1.347,0.335,5.490,1.304,0.000,34.416
13983,4.058,0.000,1.347,0.335,5.490,1.304,0.000,34.335
14037,4.058,0.000,1.347,0.335,5.490,1.304,0.000,34.288
14091,4.058,0.000,1.347,0.335,5.490,1.304,0.000,34.295
14145,4.058,0.000,1.347,0.335,5.490,1.304,0.000,34.266
14199,4.058,0.000,1.347,0.335,5.490,1.304,0.000,34.264
14253,4.058,0.000,1.347,0.335,5.490,1.304,0.000,34.281
14307,4.058,0.000,1.347,0.335,5.490,1.304,0.000,34.228
14361,4.059,0.000,1.347,0.335,5.490,1.304,0.000,34.217
14415,4.059,0.000,1.347,0.335,5.490,1.304,0.000,34.239
14469,4.059,0.000,1.347,0.335,5.490,1.304,0.000,34.185
14523,4.059,0.000,1.347,0.335,5.490,1.304,0.000,34.233
14577,4.059,0.000,1.347,0.335,5.490,1.304,0.000,34.209
14631,4.059,0.000,1.347,0.335,5.490,1.304,0.000,34.180
14685,4.059,0.000,1.347,0.335,5.490,1.304,0.000,34.170
14739,4.059,0.000,1.347,0.335,5.490,1.304,0.000,34.172
14793,4.059,0.000,1.347,0.335,5.490,1.304,0.000,34.144
14847,4.059,0.000,1.347,0.335,5.490,1.304,0.000,34.167
14901,4.059,0.000,1.347,0.335,5.490,1.304,0.000,34.118
14955,4.059,0.000,1.347,0.335,5.490,1.304,0.000,34.167
15009,4.059,0.000,1.347,0.335,5.490,1.304,0.000,34.131
15063,4.059,0.000,1.347,0.335,5.490,1.304,0.000,34.133
15117,4.059,0.000,1.347,0.335,5.490,1.304,0.000,34.149
15171,4.059,0.000,1.347,0.335,5.490,1.304,0.000,34.141
15225,4.059,0.000,1.347,0.335,5.490,1.304,0.000,34.169
15279,4.059,0.000,1.347,0.335,5.490,1.304,0.000,34.150
15333,4.059,0.000,1.347,0.335,5.490,1.304,0.000,34.154
15387,4.059,0.000,1.347,0.335,5.490,1.304,0.000,34.156
15441,4.059,0.000,1.347,0.335,5.490,1.304,0.000,34.171
15495,4.059,0.000,1.347,0.335,5.490,1.304,0.000,34.173
15549,4.059,0.000,1.347,0.335,5.490,1.304,0.000,34.132
15603,4.059,0.000,1.347,0.335,5.490,1.304,0.000,34.158
15657,4.059,0.000,1.347,0.335,5.490,1.304,0.000,34.120
15711,4.059,0.000,1.347,0.335,5.490,1.304,0.000,34.146
15765,4.059,0.000,1.347,0.335,5.490,1.304,0.000,34.171
15819,4.059,0.000,1.347,0.335,5.490,1.304,0.000,34.160
15873,4.059,0.000,1.347,0.335,5.490,1.304,0.000,34.116
15927,4.059,0.000,1.347,0.335,5.490,1.304,0.000,34.161
15981,4.059,0.000,1.347,0.335,5.490,1.304,0.000,34.134
16035,4.059,0.000,1.347,0.335,5.490,1.304,0.000,34.140
16089,4.059,0.000,1.347,0.335,5.490,1.304,0.000,34.135
16143,4.059,0.000,1.347,0.335,5.490,1.304,0.000,34.107
16197,4.059,0.000,1.347,0.335,5.490,1.304,0.000,34.150
16249,4.042,0.000,1.347,0.343,5.490,1.337,0.001,34.160
16302,4.064,0.000,1.353,0.343,5.516,1.337,0.000,34.214
16355,3.851,-3.350,1.353,0.364,5.516,1.416,-0.001,34.311
16409,3.814,-3.350,1.353,0.414,5.516,1.608,-0.001,34.712
16463,3.791,-3.350,1.353,0.464,5.516,1.800,0.000,35.147
16517,3.772,-3.350,1.353,0.515,5.516,1.990,0.000,35.575
16571,3.754,-3.350,1.353,0.565,5.516,2.179,0.000,35.880
16625,3.736,-3.350,1.353,0.615,5.516,2.367,0.000,36.277
16679,3.719,-3.350,1.353,0.665,5.516,2.554,0.000,36.542
16732,3.902,0.000,1.353,0.678,5.516,2.603,0.000,36.681
16786,3.914,0.000,1.353,0.678,5.516,2.603,0.000,36.458
16840,3.918,0.000,1.353,0.678,5.516,2.603,0.000,36.330
16894,3.921,0.000,1.353,0.678,5.516,2.603,0.000,36.248
16948,3.924,0.000,1.353,0.678,5.516,2.603,0.000,36.079
17002,3.927,0.000,1.353,0.678,5.516,2.603,0.000,35.850
17056,3.931,0.000,1.353,0.678,5.516,2.603,0.000,35.754
17110,3.934,0.000,1.353,0.678,5.516,2.603,0.000,35.571
17164,3.937,0.000,1.353,0.678,5.516,2.603,0.000,35.485
17218,3.940,0.000,1.353,0.678,5.516,2.603,0.000,35.344
17272,3.941,0.000,1.353,0.678,5.516,2.603,0.000,35.281
17326,3.941,0.000,1.353,0.678,5.516,2.603,0.000,35.132
17380,3.942,0.000,1.353,0.678,5.516,2.603,0.000,35.058
17434,3.942,0.000,1.353,0.678,5.516,2.603,0.000,34.971
17488,3.942,0.000,1.353,0.678,5.516,2.603,0.000,34.862
17542,3.943,0.000,1.353,0.678,5.516,2.603,0.000,34.751
17596,3.943,0.000,1.353,0.678,5.516,2.603,0.000,34.715
17650,3.943,0.000,1.353,0.678,5.516,2.603,0.000,34.654
17704,3.943,0.000,1.353,0.678,5.516,2.603,0.000,34.665
17758,3.943,0.000,1.353,0.678,5.516,2.603,0.000,34.534
17812,3.943,0.000,1.353,0.678,5.516,2.603,0.000,34.532
17866,3.943,0.000,1.353,0.678,5.516,2.603,0.000,34.458
17920,3.943,0.000,1.353,0.678,5.516,2.603,0.000,34.455
17974,3.943,0.000,1.353,0.678,5.516,2.603,0.000,34.482
18028,3.944,0.000,1.353,0.678,5.516,2.603,0.000,34.382
18082,3.944,0.000,1.353,0.678,5.516,2.603,0.000,34.345
18136,3.944,0.000,1.353,0.678,5.516,2.603,0.000,34.335
18190,3.944,0.000,1.353,0.678,5.516,2.603,0.000,34.327
18244,3.944,0.000,1.353,0.678,5.516,2.603,0.000,34.300
18298,3.944,0.000,1.353,0.678,5.516,2.603,0.000,34.244
18352,3.944,0.000,1.353,0.678,5.516,2.603,0.000,34.261
18406,3.944,0.000,1.353,0.678,5.516,2.603,0.000,34.240
18460,3.944,0.000,1.353,0.678,5.516,2.603,0.000,34.258
18514,3.944,0.000,1.353,0.678,5.516,2.603,0.000,34.248
18568,3.944,0.000,1.353,0.678,5.516,2.603,0.000,34.216
18622,3.944,0.000,1.353,0.678,5.516,2.603,0.000,34.198
18676,3.944,0.000,1.353,0.678,5.516,2.603,0.000,34.199
18730,3.944,0.000,1.353,0.678,5.516,2.603,0.000,34.218
18784,3.944,0.000,1.353,0.678,5.516,2.603,0.000,34.221
18838,3.944,0.000,1.353,0.678,5.516,2.603,0.000,34.248
18892,3.944,0.000,1.353,0.678,5.516,2.603,0.000,34.169
18946,3.944,0.000,1.353,0.678,5.516,2.603,0.000,34.221
19000,3.944,0.000,1.353,0.678,5.516,2.603,0.000,34.202
19054,3.944,0.000,1.353,0.678,5.516,2.603,0.000,34.212
19108,3.944,0.000,1.353,0.678,5.516,2.603,0.000,34.165
19162,3.944,0.000,1.353,0.678,5.516,2.603,0.000,34.143
19216,3.944,0.000,1.353,0.678,5.516,2.603,0.000,34.170
19270,3.944,0.000,1.353,0.678,5.516,2.603,0.000,34.158
19324,3.944,0.000,1.353,0.678,5.516,2.603,0.000,34.165
19378,3.944,0.000,1.353,0.678,5.516,2.603,0.000,34.177
19432,3.944,0.000,1.353,0.678,5.516,2.603,0.000,34.163
19486,3.944,0.000,1.353,0.678,5.516,2.603,0.000,34.145
19540,3.944,0.000,1.353,0.678,5.516,2.603,0.000,34.192
19594,3.944,0.000,1.353,0.678,5.516,2.603,0.000,34.119
19648,3.944,0.000,1.353,0.678,5.516,2.603,0.000,34.132
19702,3.945,0.000,1.353,0.678,5.516,2.603,0.000,34.170
19756,3.945,0.000,1.353,0.678,5.516,2.603,0.000,34.142
19810,3.945,0.000,1.353,0.678,5.516,2.603,0.000,34.113
19864,3.945,0.000,1.353,0.678,5.516,2.603,0.000,34.122
19918,3.945,0.000,1.353,0.678,5.516,2.603,0.000,34.146
19972,3.945,0.000,1.353,0.678,5.516,2.603,0.000,34.193
20026,3.945,0.000,1.353,0.678,5.516,2.603,0.000,34.152
20080,3.945,0.000,1.353,0.678,5.516,2.603,0.000,34.155
20134,3.945,0.000,1.353,0.678,5.516,2.603,0.000,34.159
20188,3.945,0.000,1.353,0.678,5.516,2.603,0.000,34.154
20242,3.945,0.000,1.353,0.678,5.516,2.603,0.000,34.108
20295,3.798,-3.000,1.353,0.680,5.516,2.609,-0.005,34.178
20347,4.049,2.250,1.356,0.687,5.526,2.634,0.002,34.256
20399,3.768,-3.350,1.360,0.692,5.542,2.655,-0.003,34.268
20453,3.713,-3.350,1.360,0.743,5.542,2.843,0.000,34.623
20507,3.693,-3.350,1.360,0.793,5.542,3.029,0.000,34.990
20561,3.675,-3.350,1.360,0.843,5.542,3.214,0.000,35.317
20615,3.657,-3.350,1.360,0.893,5.542,3.398,0.000,35.728
20669,3.641,-3.350,1.360,0.944,5.542,3.582,0.000,36.044
20723,3.626,-3.350,1.360,0.994,5.542,3.764,0.000,36.391
20776,3.799,0.000,1.360,1.022,5.542,3.866,0.001,36.621
20830,3.818,0.000,1.360,1.022,5.542,3.866,0.000,36.479
20884,3.824,0.000,1.360,1.022,5.542,3.866,0.000,36.317
20938,3.828,0.000,1.360,1.022,5.542,3.866,0.000,36.129
20992,3.830,0.000,1.360,1.022,5.542,3.866,0.000,36.004
21046,3.831,0.000,1.360,1.022,5.542,3.866,0.000,35.873
21100,3.832,0.000,1.360,1.022,5.542,3.866,0.000,35.805
21154,3.833,0.000,1.360,1.022,5.542,3.866,0.000,35.665
21208,3.834,0.000,1.360,1.022,5.542,3.866,0.000,35.558
21262,3.835,0.000,1.360,1.022,5.542,3.866,0.000,35.479
21316,3.836,0.000,1.360,1.022,5.542,3.866,0.000,35.384
21370,3.837,0.000,1.360,1.022,5.542,3.866,0.000,35.287
21424,3.838,0.000,1.360,1.022,5.542,3.866,0.000,35.203
21478,3.840,0.000,1.360,1.022,5.542,3.866,0.000,35.134
21532,3.841,0.000,1.360,1.022,5.542,3.866,0.000,35.119
21586,3.843,0.000,1.360,1.022,5.542,3.866,0.000,35.038
21640,3.845,0.000,1.360,1.022,5.542,3.866,0.000,34.962
21694,3.848,0.000,1.360,1.022,5.542,3.866,0.000,34.955
21748,3.850,0.000,1.360,1.022,5.542,3.866,0.000,34.830
21802,3.852,0.000,1.360,1.022,5.542,3.866,0.000,34.758
21856,3.853,0.000,1.360,1.022,5.542,3.866,0.000,34.766
21910,3.854,0.000,1.360,1.022,5.542,3.866,0.000,34.682
21964,3.855,0.000,1.360,1.022,5.542,3.866,0.000,34.611
22018,3.856,0.000,1.360,1.022,5.542,3.866,0.000,34.577
22072,3.856,0.000,1.360,1.022,5.542,3.866,0.000,34.511
22126,3.856,0.000,1.360,1.022,5.542,3.866,0.000,34.519
22180,3.857,0.000,1.360,1.022,5.542,3.866,0.000,34.442
22234,3.857,0.000,1.360,1.022,5.542,3.866,0.000,34.443
22288,3.857,0.000,1.360,1.022,5.542,3.866,0.000,34.350
22342,3.857,0.000,1.360,1.022,5.542,3.866,0.000,34.382
22396,3.857,0.000,1.360,1.022,5.542,3.866,0.000,34.321
22450,3.857,0.000,1.360,1.022,5.542,3.866,0.000,34.350
22504,3.858,0.000,1.360,1.022,5.542,3.866,0.000,34.322
22558,3.858,0.000,1.360,1.022,5.542,3.866,0.000,34.332
22612,3.858,0.000,1.360,1.022,5.542,3.866,0.000,34.353
22666,3.858,0.000,1.360,1.022,5.542,3.866,0.000,34.311
22720,3.858,0.000,1.360,1.022,5.542,3.866,0.000,34.346
22774,3.858,0.000,1.360,1.022,5.542,3.866,0.000,34.370
22828,3.858,0.000,1.360,1.022,5.542,3.866,0.000,34.288
22882,3.858,0.000,1.360,1.022,5.542,3.866,0.000,34.393
22936,3.858,0.000,1.360,1.022,5.542,3.866,0.000,34.420
22990,3.858,0.000,1.360,1.022,5.542,3.866,0.000,34.396
23044,3.858,0.000,1.360,1.022,5.542,3.866,0.000,34.511
23098,3.858,0.000,1.360,1.022,5.542,3.866,0.000,34.481
23152,3.858,0.000,1.360,1.022,5.542,3.866,0.000,34.393
23206,3.858,0.000,1.360,1.022,5.542,3.866,0.000,34.441
23260,3.858,0.000,1.360,1.022,5.542,3.866,0.000,34.369
23314,3.858,0.000,1.360,1.022,5.542,3.866,0.000,34.317
23368,3.858,0.000,1.360,1.022,5.542,3.866,0.000,34.322
23422,3.859,0.000,1.360,1.022,5.542,3.866,0.000,34.339
23476,3.858,0.000,1.360,1.022,5.542,3.866,0.000,34.357
23530,3.858,0.000,1.360,1.022,5.542,3.866,0.000,34.316
23584,3.859,0.000,1.360,1.022,5.542,3.866,0.000,34.278
23638,3.859,0.000,1.360,1.022,5.542,3.866,0.000,34.265
23692,3.859,0.000,1.360,1.022,5.542,3.866,0.000,34.300
23746,3.859,0.000,1.360,1.022,5.542,3.866,0.000,34.268
23800,3.859,0.000,1.360,1.022,5.542,3.866,0.000,34.258
23854,3.859,0.000,1.360,1.022,5.542,3.866,0.000,34.249
23908,3.859,0.000,1.360,1.022,5.542,3.866,0.000,34.258
23962,3.859,0.000,1.360,1.022,5.542,3.866,0.000,34.230
24016,3.859,0.000,1.360,1.022,5.542,3.866,0.000,34.231
24070,3.859,0.000,1.360,1.022,5.542,3.866,0.000,34.184
24124,3.859,0.000,1.360,1.022,5.542,3.866,0.000,34.198
24178,3.859,0.000,1.360,1.022,5.542,3.866,0.000,34.207
24232,3.859,0.000,1.360,1.022,5.542,3.866,0.000,34.201
24286,3.859,0.000,1.360,1.022,5.542,3.866,0.000,34.199
24340,3.859,0.000,1.360,1.022,5.542,3.866,0.000,34.217
24392,3.846,0.000,1.360,1.030,5.542,3.897,0.000,34.251
24444,3.860,0.000,1.366,1.030,5.566,3.897,0.000,34.301
24497,3.636,-3.350,1.366,1.071,5.566,4.046,0.000,34.513
24551,3.613,-3.350,1.366,1.121,5.566,4.228,0.000,34.884
24605,3.593,-3.350,1.366,1.172,5.566,4.410,0.000,35.200
24659,3.574,-3.350,1.366,1.222,5.566,4.590,0.000,35.549
24713,3.554,-3.350,1.366,1.272,5.566,4.769,0.000,35.920
24767,3.536,-3.350,1.366,1.323,5.566,4.947,0.000,36.286
24820,3.687,0.000,1.366,1.365,5.566,5.098,0.002,36.579
24874,3.720,0.000,1.366,1.365,5.566,5.098,0.000,36.473
24928,3.729,0.000,1.366,1.365,5.566,5.098,0.000,36.246
24982,3.733,0.000,1.366,1.365,5.566,5.098,0.000,36.124
25036,3.736,0.000,1.366,1.365,5.566,5.098,0.000,35.939
25090,3.738,0.000,1.366,1.365,5.566,5.098,0.000,35.837
25144,3.739,0.000,1.366,1.365,5.566,5.098,0.000,35.658
25198,3.740,0.000,1.366,1.365,5.566,5.098,0.000,35.587
25252,3.741,0.000,1.366,1.365,5.566,5.098,0.000,35.517
25306,3.741,0.000,1.366,1.365,5.566,5.098,0.000,35.410
25360,3.742,0.000,1.366,1.365,5.566,5.098,0.000,35.334
25414,3.742,0.000,1.366,1.365,5.566,5.098,0.000,35.271
25468,3.743,0.000,1.366,1.365,5.566,5.098,0.000,35.155
25522,3.743,0.000,1.366,1.365,5.566,5.098,0.000,35.083
25576,3.743,0.000,1.366,1.365,5.566,5.098,0.000,35.037
25630,3.744,0.000,1.366,1.365,5.566,5.098,0.000,35.047
25684,3.744,0.000,1.366,1.365,5.566,5.098,0.000,34.941
25738,3.745,0.000,1.366,1.365,5.566,5.098,0.000,34.877
25792,3.745,0.000,1.366,1.365,5.566,5.098,0.000,34.862
25846,3.745,0.000,1.366,1.365,5.566,5.098,0.000,34.856
25900,3.746,0.000,1.366,1.365,5.566,5.098,0.000,34.781
25954,3.746,0.000,1.366,1.365,5.566,5.098,0.000,34.772
26008,3.746,0.000,1.366,1.365,5.566,5.098,0.000,34.654
26062,3.747,0.000,1.366,1.365,5.566,5.098,0.000,34.677
26116,3.747,0.000,1.366,1.365,5.566,5.098,0.000,34.617
26170,3.748,0.000,1.366,1.365,5.566,5.098,0.000,34.584
26224,3.748,0.000,1.366,1.365,5.566,5.098,0.000,34.584
26278,3.749,0.000,1.366,1.365,5.566,5.098,0.000,34.544
26332,3.749,0.000,1.366,1.365,5.566,5.098,0.000,34.549
26386,3.750,0.000,1.366,1.365,5.566,5.098,0.000,34.488
26440,3.750,0.000,1.366,1.365,5.566,5.098,0.000,34.461
26494,3.751,0.000,1.366,1.365,5.566,5.098,0.000,34.510
26548,3.752,0.000,1.366,1.365,5.566,5.098,0.000,34.460
26602,3.752,0.000,1.366,1.365,5.566,5.098,0.000,34.441
26656,3.753,0.000,1.366,1.365,5.566,5.098,0.000,34.408
26710,3.754,0.000,1.366,1.365,5.566,5.098,0.000,34.397
26764,3.755,0.000,1.366,1.365,5.566,5.098,0.000,34.368
26818,3.756,0.000,1.366,1.365,5.566,5.098,0.000,34.389
26872,3.756,0.000,1.366,1.365,5.566,5.098,0.000,34.331
26926,3.757,0.000,1.366,1.365,5.566,5.098,0.000,34.335
26980,3.758,0.000,1.366,1.365,5.566,5.098,0.000,34.299
27034,3.758,0.000,1.366,1.365,5.566,5.098,0.000,34.283
27088,3.759,0.000,1.366,1.365,5.566,5.098,0.000,34.289
27142,3.759,0.000,1.366,1.365,5.566,5.098,0.000,34.269
27196,3.760,0.000,1.366,1.365,5.566,5.098,0.000,34.294
27250,3.760,0.000,1.366,1.365,5.566,5.098,0.000,34.280
27304,3.761,0.000,1.366,1.365,5.566,5.098,0.000,34.283
27358,3.761,0.000,1.366,1.365,5.566,5.098,0.000,34.230
27412,3.762,0.000,1.366,1.365,5.566,5.098,0.000,34.235
27466,3.762,0.000,1.366,1.365,5.566,5.098,0.000,34.246
27520,3.762,0.000,1.366,1.365,5.566,5.098,0.000,34.201
27574,3.763,0.000,1.366,1.365,5.566,5.098,0.000,34.251
27628,3.763,0.000,1.366,1.365,5.566,5.098,0.000,34.218
27682,3.763,0.000,1.366,1.365,5.566,5.098,0.000,34.230
27736,3.763,0.000,1.366,1.365,5.566,5.098,0.000,34.224
27790,3.763,0.000,1.366,1.365,5.566,5.098,0.000,34.180
27844,3.764,0.000,1.366,1.365,5.566,5.098,0.000,34.183
27898,3.764,0.000,1.366,1.365,5.566,5.098,0.000,34.184
27952,3.764,0.000,1.366,1.365,5.566,5.098,0.000,34.209
28006,3.764,0.000,1.366,1.365,5.566,5.098,0.000,34.198
28060,3.764,0.000,1.366,1.365,5.566,5.098,0.000,34.219
28114,3.764,0.000,1.366,1.365,5.566,5.098,0.000,34.182
28168,3.765,0.000,1.366,1.365,5.566,5.098,0.000,34.197
28222,3.765,0.000,1.366,1.365,5.566,5.098,0.000,34.174
28276,3.765,0.000,1.366,1.365,5.566,5.098,0.000,34.179
28330,3.765,0.000,1.366,1.365,5.566,5.098,0.000,34.142
28384,3.765,0.000,1.366,1.365,5.566,5.098,0.000,34.167
28437,3.747,0.000,1.366,1.374,5.566,5.128,0.000,34.192
28489,3.767,0.000,1.372,1.374,5.591,5.128,0.000,34.246
28542,3.552,-3.350,1.372,1.400,5.591,5.221,-0.001,34.362
28596,3.524,-3.350,1.372,1.450,5.591,5.399,0.000,34.697
28650,3.504,-3.350,1.372,1.500,5.591,5.576,0.000,35.077
28704,3.485,-3.350,1.372,1.551,5.591,5.751,0.000,35.373
28758,3.467,-3.350,1.372,1.601,5.591,5.926,0.000,35.679
28812,3.450,-3.350,1.372,1.651,5.591,6.100,0.000,35.959
28866,3.434,-3.350,1.372,1.701,5.591,6.273,0.000,36.251
28919,3.627,0.000,1.372,1.709,5.591,6.298,0.000,36.243
28973,3.640,0.000,1.372,1.709,5.591,6.298,0.000,36.031
29027,3.645,0.000,1.372,1.709,5.591,6.298,0.000,35.834
29081,3.647,0.000,1.372,1.709,5.591,6.298,0.000,35.643
29135,3.648,0.000,1.372,1.709,5.591,6.298,0.000,35.505
29189,3.650,0.000,1.372,1.709,5.591,6.298,0.000,35.405
29243,3.650,0.000,1.372,1.709,5.591,6.298,0.000,35.334
29297,3.651,0.000,1.372,1.709,5.591,6.298,0.000,35.219
29351,3.652,0.000,1.372,1.709,5.591,6.298,0.000,35.042
29405,3.652,0.000,1.372,1.709,5.591,6.298,0.000,34.965
29459,3.652,0.000,1.372,1.709,5.591,6.298,0.000,34.885
29513,3.653,0.000,1.372,1.709,5.591,6.298,0.000,34.806
29567,3.653,0.000,1.372,1.709,5.591,6.298,0.000,34.778
29621,3.653,0.000,1.372,1.709,5.591,6.298,0.000,34.671
29675,3.654,0.000,1.372,1.709,5.591,6.298,0.000,34.643
29729,3.654,0.000,1.372,1.709,5.591,6.298,0.000,34.635
29783,3.654,0.000,1.372,1.709,5.591,6.298,0.000,34.553
29837,3.654,0.000,1.372,1.709,5.591,6.298,0.000,34.540
29891,3.654,0.000,1.372,1.709,5.591,6.298,0.000,34.481
29945,3.654,0.000,1.372,1.709,5.591,6.298,0.000,34.483
29999,3.655,0.000,1.372,1.709,5.591,6.298,0.000,34.447
30053,3.655,0.000,1.372,1.709,5.591,6.298,0.000,34.463
30107,3.655,0.000,1.372,1.709,5.591,6.298,0.000,34.405
30161,3.655,0.000,1.372,1.709,5.591,6.298,0.000,34.352
30215,3.655,0.000,1.372,1.709,5.591,6.298,0.000,34.378
30269,3.655,0.000,1.372,1.709,5.591,6.298,0.000,34.357
30323,3.655,0.000,1.372,1.709,5.591,6.298,0.000,34.344
30377,3.655,0.000,1.372,1.709,5.591,6.298,0.000,34.334
30431,3.655,0.000,1.372,1.709,5.591,6.298,0.000,34.318
30485,3.655,0.000,1.372,1.709,5.591,6.298,0.000,34.311
30539,3.656,0.000,1.372,1.709,5.591,6.298,0.000,34.306
30593,3.656,0.000,1.372,1.709,5.591,6.298,0.000,34.256
30647,3.656,0.000,1.372,1.709,5.591,6.298,0.000,34.281
30701,3.656,0.000,1.372,1.709,5.591,6.298,0.000,34.260
30755,3.656,0.000,1.372,1.709,5.591,6.298,0.000,34.234
30809,3.656,0.000,1.372,1.709,5.591,6.298,0.000,34.219
30863,3.656,0.000,1.372,1.709,5.591,6.298,0.000,34.226
30917,3.656,0.000,1.372,1.709,5.591,6.298,0.000,34.194
30971,3.656,0.000,1.372,1.709,5.591,6.298,0.000,34.225
31025,3.656,0.000,1.372,1.709,5.591,6.298,0.000,34.276
31079,3.656,0.000,1.372,1.709,5.591,6.298,0.000,34.180
31133,3.656,0.000,1.372,1.709,5.591,6.298,0.000,34.202
31187,3.656,0.000,1.372,1.709,5.591,6.298,0.000,34.194
31241,3.656,0.000,1.372,1.709,5.591,6.298,0.000,34.220
31295,3.656,0.000,1.372,1.709,5.591,6.298,0.000,34.211
31349,3.656,0.000,1.372,1.709,5.591,6.298,0.000,34.171
31403,3.656,0.000,1.372,1.709,5.591,6.298,0.000,34.205
31457,3.656,0.000,1.372,1.709,5.591,6.298,0.000,34.160
31511,3.656,0.000,1.372,1.709,5.591,6.298,0.000,34.170
31565,3.656,0.000,1.372,1.709,5.591,6.298,0.000,34.198
31619,3.657,0.000,1.372,1.709,5.591,6.298,0.000,34.154
31673,3.657,0.000,1.372,1.709,5.591,6.298,0.000,34.145
31727,3.657,0.000,1.372,1.709,5.591,6.298,0.000,34.206
31781,3.657,0.000,1.372,1.709,5.591,6.298,0.000,34.194
31835,3.657,0.000,1.372,1.709,5.591,6.298,0.000,34.194
31889,3.657,0.000,1.372,1.709,5.591,6.298,0.000,34.134
31943,3.657,0.000,1.372,1.709,5.591,6.298,0.000,34.139
31997,3.657,0.000,1.372,1.709,5.591,6.298,0.000,34.176
32051,3.657,0.000,1.372,1.709,5.591,6.298,0.000,34.131
32105,3.657,0.000,1.372,1.709,5.591,6.298,0.000,34.177
32159,3.657,0.000,1.372,1.709,5.591,6.298,0.000,34.138
32213,3.657,0.000,1.372,1.709,5.591,6.298,0.000,34.137
32267,3.657,0.000,1.372,1.709,5.591,6.298,0.000,34.133
32321,3.657,0.000,1.372,1.709,5.591,6.298,0.000,34.159
32375,3.657,0.000,1.372,1.709,5.591,6.298,0.000,34.114
32429,3.657,0.000,1.372,1.709,5.591,6.298,0.000,34.158
32482,3.500,-3.000,1.372,1.715,5.591,6.321,-0.002,34.193
32534,3.769,2.250,1.378,1.717,5.614,6.328,0.001,34.209
32586,3.475,-3.350,1.378,1.728,5.614,6.366,-0.002,34.237
32640,3.430,-3.350,1.378,1.779,5.614,6.540,-0.001,34.589
32694,3.408,-3.350,1.378,1.829,5.614,6.712,0.000,35.119
32748,3.391,-3.350,1.378,1.879,5.614,6.882,0.000,35.511
32802,3.377,-3.350,1.378,1.929,5.614,7.052,0.000,35.931
32856,3.362,-3.350,1.378,1.980,5.614,7.222,0.000,36.310
32910,3.349,-3.350,1.378,2.030,5.614,7.390,0.000,36.706
32963,3.541,0.000,1.378,2.052,5.614,7.465,0.001,36.879
33017,3.564,0.000,1.378,2.052,5.614,7.465,0.000,36.567
33071,3.572,0.000,1.378,2.052,5.614,7.465,0.000,36.298
33125,3.578,0.000,1.378,2.052,5.614,7.465,0.000,36.075
33179,3.582,0.000,1.378,2.052,5.614,7.465,0.000,35.789
33233,3.585,0.000,1.378,2.052,5.614,7.465,0.000,35.687
33287,3.587,0.000,1.378,2.052,5.614,7.465,0.000,35.497
33341,3.588,0.000,1.378,2.052,5.614,7.465,0.000,35.367
33395,3.589,0.000,1.378,2.052,5.614,7.465,0.000,35.230
33449,3.589,0.000,1.378,2.052,5.614,7.465,0.000,35.171
33503,3.590,0.000,1.378,2.052,5.614,7.465,0.000,35.067
33557,3.590,0.000,1.378,2.052,5.614,7.465,0.000,34.962
33611,3.590,0.000,1.378,2.052,5.614,7.465,0.000,34.928
33665,3.591,0.000,1.378,2.052,5.614,7.465,0.000,34.822
33719,3.591,0.000,1.378,2.052,5.614,7.465,0.000,34.706
33773,3.591,0.000,1.378,2.052,5.614,7.465,0.000,34.709
33827,3.591,0.000,1.378,2.052,5.614,7.465,0.000,34.764
33881,3.592,0.000,1.378,2.052,5.614,7.465,0.000,34.736
33935,3.592,0.000,1.378,2.052,5.614,7.465,0.000,34.668
33989,3.592,0.000,1.378,2.052,5.614,7.465,0.000,34.594
34043,3.592,0.000,1.378,2.052,5.614,7.465,0.000,34.601
34097,3.592,0.000,1.378,2.052,5.614,7.465,0.000,34.591
34151,3.592,0.000,1.378,2.052,5.614,7.465,0.000,34.523
34205,3.592,0.000,1.378,2.052,5.614,7.465,0.000,34.473
34259,3.593,0.000,1.378,2.052,5.614,7.465,0.000,34.505
34313,3.593,0.000,1.378,2.052,5.614,7.465,0.000,34.438
34367,3.593,0.000,1.378,2.052,5.614,7.465,0.000,34.436
34421,3.593,0.000,1.378,2.052,5.614,7.465,0.000,34.436
34475,3.593,0.000,1.378,2.052,5.614,7.465,0.000,34.387
34529,3.593,0.000,1.378,2.052,5.614,7.465,0.000,34.382
34583,3.593,0.000,1.378,2.052,5.614,7.465,0.000,34.370
34637,3.593,0.000,1.378,2.052,5.614,7.465,0.000,34.381
34691,3.593,0.000,1.378,2.052,5.614,7.465,0.000,34.412
34745,3.594,0.000,1.378,2.052,5.614,7.465,0.000,34.395
34799,3.594,0.000,1.378,2.052,5.614,7.465,0.000,34.378
34853,3.594,0.000,1.378,2.052,5.614,7.465,0.000,34.399
34907,3.594,0.000,1.378,2.052,5.614,7.465,0.000,34.406
34961,3.594,0.000,1.378,2.052,5.614,7.465,0.000,34.385
35015,3.594,0.000,1.378,2.052,5.614,7.465,0.000,34.428
35069,3.594,0.000,1.378,2.052,5.614,7.465,0.000,34.396
35123,3.594,0.000,1.378,2.052,5.614,7.465,0.000,34.354
35177,3.594,0.000,1.378,2.052,5.614,7.465,0.000,34.354
35231,3.594,0.000,1.378,2.052,5.614,7.465,0.000,34.366
35285,3.594,0.000,1.378,2.052,5.614,7.465,0.000,34.401
35339,3.594,0.000,1.378,2.052,5.614,7.465,0.000,34.387
35393,3.594,0.000,1.378,2.052,5.614,7.465,0.000,34.315
35447,3.594,0.000,1.378,2.052,5.614,7.465,0.000,34.342
35501,3.594,0.000,1.378,2.052,5.614,7.465,0.000,34.368
35555,3.594,0.000,1.378,2.052,5.614,7.465,0.000,34.357
35609,3.594,0.000,1.378,2.052,5.614,7.465,0.000,34.337
35663,3.594,0.000,1.378,2.052,5.614,7.465,0.000,34.340
35717,3.594,0.000,1.378,2.052,5.614,7.465,0.000,34.386
35771,3.594,0.000,1.378,2.052,5.614,7.465,0.000,34.373
35825,3.595,0.000,1.378,2.052,5.614,7.465,0.000,34.304
35879,3.595,0.000,1.378,2.052,5.614,7.465,0.000,34.343
35933,3.595,0.000,1.378,2.052,5.614,7.465,0.000,34.338
35987,3.595,0.000,1.378,2.052,5.614,7.465,0.000,34.314
36041,3.595,0.000,1.378,2.052,5.614,7.465,0.000,34.341
36095,3.595,0.000,1.378,2.052,5.614,7.465,0.000,34.316
36149,3.595,0.000,1.378,2.052,5.614,7.465,0.000,34.373
36203,3.595,0.000,1.378,2.052,5.614,7.465,0.000,34.292
36257,3.595,0.000,1.378,2.052,5.614,7.465,0.000,34.338
36311,3.595,0.000,1.378,2.052,5.614,7.465,0.000,34.327
36365,3.595,0.000,1.378,2.052,5.614,7.465,0.000,34.341
36419,3.595,0.000,1.378,2.052,5.614,7.465,0.000,34.300
36473,3.595,0.000,1.378,2.052,5.614,7.465,0.000,34.336
36527,3.595,0.000,1.378,2.052,5.614,7.465,0.000,34.341
36579,3.587,0.000,1.378,2.061,5.614,7.494,0.000,34.417
36631,3.595,0.000,1.385,2.061,5.637,7.494,0.000,34.413
36684,3.371,-3.350,1.385,2.107,5.637,7.652,-0.001,34.748
36738,3.340,-3.350,1.385,2.157,5.637,7.821,-0.001,35.297
36792,3.317,-3.350,1.385,2.208,5.637,7.988,0.000,35.828
36846,3.298,-3.350,1.385,2.258,5.637,8.154,0.000,36.258
36900,3.283,-3.350,1.385,2.308,5.637,8.319,0.000,36.779
36954,3.268,-3.350,1.385,2.358,5.637,8.484,0.000,37.237
37007,3.445,0.000,1.385,2.396,5.637,8.605,0.001,37.556
37061,3.475,0.000,1.385,2.396,5.637,8.605,0.000,37.386
37115,3.492,0.000,1.385,2.396,5.637,8.605,0.000,37.044
37169,3.503,0.000,1.385,2.396,5.637,8.605,0.000,36.794
37223,3.510,0.000,1.385,2.396,5.637,8.605,0.000,36.474
37277,3.514,0.000,1.385,2.396,5.637,8.605,0.000,36.268
37331,3.517,0.000,1.385,2.396,5.637,8.605,0.000,36.056
37385,3.519,0.000,1.385,2.396,5.637,8.605,0.000,35.839
37439,3.521,0.000,1.385,2.396,5.637,8.605,0.000,35.667
37493,3.523,0.000,1.385,2.396,5.637,8.605,0.000,35.553
37547,3.525,0.000,1.385,2.396,5.637,8.605,0.000,35.414
37601,3.527,0.000,1.385,2.396,5.637,8.605,0.000,35.282
37655,3.528,0.000,1.385,2.396,5.637,8.605,0.000,35.135
37709,3.529,0.000,1.385,2.396,5.637,8.605,0.000,35.076
37763,3.530,0.000,1.385,2.396,5.637,8.605,0.000,34.991
37817,3.531,0.000,1.385,2.396,5.637,8.605,0.000,34.939
37871,3.531,0.000,1.385,2.396,5.637,8.605,0.000,34.877
37925,3.532,0.000,1.385,2.396,5.637,8.605,0.000,34.823
37979,3.532,0.000,1.385,2.396,5.637,8.605,0.000,34.730
38033,3.533,0.000,1.385,2.396,5.637,8.605,0.000,34.674
38087,3.533,0.000,1.385,2.396,5.637,8.605,0.000,34.652
38141,3.533,0.000,1.385,2.396,5.637,8.605,0.000,34.603
38195,3.534,0.000,1.385,2.396,5.637,8.605,0.000,34.574
38249,3.534,0.000,1.385,2.396,5.637,8.605,0.000,34.523
38303,3.534,0.000,1.385,2.396,5.637,8.605,0.000,34.465
38357,3.534,0.000,1.385,2.396,5.637,8.605,0.000,34.483
38411,3.535,0.000,1.385,2.396,5.637,8.605,0.000,34.464
38465,3.535,0.000,1.385,2.396,5.637,8.605,0.000,34.401
38519,3.535,0.000,1.385,2.396,5.637,8.605,0.000,34.450
38573,3.535,0.000,1.385,2.396,5.637,8.605,0.000,34.391
38627,3.535,0.000,1.385,2.396,5.637,8.605,0.000,34.358
38681,3.536,0.000,1.385,2.396,5.637,8.605,0.000,34.391
38735,3.536,0.000,1.385,2.396,5.637,8.605,0.000,34.350
38789,3.536,0.000,1.385,2.396,5.637,8.605,0.000,34.281
38843,3.536,0.000,1.385,2.396,5.637,8.605,0.000,34.299
38897,3.536,0.000,1.385,2.396,5.637,8.605,0.000,34.318
38951,3.536,0.000,1.385,2.396,5.637,8.605,0.000,34.304
39005,3.536,0.000,1.385,2.396,5.637,8.605,0.000,34.306
39059,3.536,0.000,1.385,2.396,5.637,8.605,0.000,34.293
39113,3.537,0.000,1.385,2.396,5.637,8.605,0.000,34.268
39167,3.537,0.000,1.385,2.396,5.637,8.605,0.000,34.267
39221,3.537,0.000,1.385,2.396,5.637,8.605,0.000,34.277
39275,3.537,0.000,1.385,2.396,5.637,8.605,0.000,34.261
39329,3.537,0.000,1.385,2.396,5.637,8.605,0.000,34.264
39383,3.537,0.000,1.385,2.396,5.637,8.605,0.000,34.281
39437,3.537,0.000,1.385,2.396,5.637,8.605,0.000,34.251
39491,3.537,0.000,1.385,2.396,5.637,8.605,0.000,34.240
39545,3.537,0.000,1.385,2.396,5.637,8.605,0.000,34.207
39599,3.537,0.000,1.385,2.396,5.637,8.605,0.000,34.259
39653,3.537,0.000,1.385,2.396,5.637,8.605,0.000,34.208
39707,3.537,0.000,1.385,2.396,5.637,8.605,0.000,34.185
39761,3.537,0.000,1.385,2.396,5.637,8.605,0.000,34.222
39815,3.537,0.000,1.385,2.396,5.637,8.605,0.000,34.228
39869,3.538,0.000,1.385,2.396,5.637,8.605,0.000,34.202
39923,3.538,0.000,1.385,2.396,5.637,8.605,0.000,34.213
39977,3.538,0.000,1.385,2.396,5.637,8.605,0.000,34.206
40031,3.538,0.000,1.385,2.396,5.637,8.605,0.000,34.228
40085,3.538,0.000,1.385,2.396,5.637,8.605,0.000,34.201
40139,3.538,0.000,1.385,2.396,5.637,8.605,0.000,34.196
40193,3.538,0.000,1.385,2.396,5.637,8.605,0.000,34.191
40247,3.538,0.000,1.385,2.396,5.637,8.605,0.000,34.229
40301,3.538,0.000,1.385,2.396,5.637,8.605,0.000,34.246
40355,3.538,0.000,1.385,2.396,5.637,8.605,0.000,34.226
40409,3.538,0.000,1.385,2.396,5.637,8.605,0.000,34.242
40463,3.538,0.000,1.385,2.396,5.637,8.605,0.000,34.215
40517,3.538,0.000,1.385,2.396,5.637,8.605,0.000,34.218
40571,3.538,0.000,1.385,2.396,5.637,8.605,0.000,34.216
40624,3.527,0.000,1.385,2.404,5.637,8.634,0.000,34.271
40676,3.540,0.000,1.391,2.404,5.660,8.634,0.000,34.327
40729,3.316,-3.350,1.391,2.436,5.660,8.740,-0.001,34.492
40783,3.271,-3.350,1.391,2.486,5.660,8.905,-0.001,35.027
40837,3.239,-3.350,1.391,2.536,5.660,9.068,-0.001,35.665
40891,3.215,-3.350,1.391,2.586,5.660,9.231,0.000,36.306
40945,3.193,-3.350,1.391,2.637,5.660,9.392,0.000,36.868
40999,3.171,-3.350,1.391,2.687,5.660,9.552,0.000,37.387
41053,3.148,-3.350,1.391,2.737,5.660,9.710,0.000,37.850
41106,3.383,0.000,1.391,2.739,5.660,9.716,0.000,37.901
41160,3.391,0.000,1.391,2.739,5.660,9.716,0.000,37.550
41214,3.397,0.000,1.391,2.739,5.660,9.716,0.000,37.294
41268,3.404,0.000,1.391,2.739,5.660,9.716,0.000,37.090
41322,3.410,0.000,1.391,2.739,5.660,9.716,0.000,36.779
41376,3.414,0.000,1.391,2.739,5.660,9.716,0.000,36.533
41430,3.418,0.000,1.391,2.739,5.660,9.716,0.000,36.322
41484,3.420,0.000,1.391,2.739,5.660,9.716,0.000,36.155
41538,3.422,0.000,1.391,2.739,5.660,9.716,0.000,35.975
41592,3.424,0.000,1.391,2.739,5.660,9.716,0.000,35.805
41646,3.425,0.000,1.391,2.739,5.660,9.716,0.000,35.635
41700,3.426,0.000,1.391,2.739,5.660,9.716,0.000,35.475
41754,3.426,0.000,1.391,2.739,5.660,9.716,0.000,35.400
41808,3.427,0.000,1.391,2.739,5.660,9.716,0.000,35.315
41862,3.428,0.000,1.391,2.739,5.660,9.716,0.000,35.147
41916,3.428,0.000,1.391,2.739,5.660,9.716,0.000,35.057
41970,3.428,0.000,1.391,2.739,5.660,9.716,0.000,34.990
42024,3.429,0.000,1.391,2.739,5.660,9.716,0.000,34.924
42078,3.429,0.000,1.391,2.739,5.660,9.716,0.000,34.852
42132,3.429,0.000,1.391,2.739,5.660,9.716,0.000,34.753
42186,3.430,0.000,1.391,2.739,5.660,9.716,0.000,34.723
42240,3.430,0.000,1.391,2.739,5.660,9.716,0.000,34.685
42294,3.430,0.000,1.391,2.739,5.660,9.716,0.000,34.609
42348,3.430,0.000,1.391,2.739,5.660,9.716,0.000,34.603
42402,3.430,0.000,1.391,2.739,5.660,9.716,0.000,34.515
42456,3.430,0.000,1.391,2.739,5.660,9.716,0.000,34.515
42510,3.431,0.000,1.391,2.739,5.660,9.716,0.000,34.467
42564,3.431,0.000,1.391,2.739,5.660,9.716,0.000,34.438
42618,3.431,0.000,1.391,2.739,5.660,9.716,0.000,34.459
42672,3.431,0.000,1.391,2.739,5.660,9.716,0.000,34.392
42726,3.431,0.000,1.391,2.739,5.660,9.716,0.000,34.358
42780,3.431,0.000,1.391,2.739,5.660,9.716,0.000,34.387
42834,3.431,0.000,1.391,2.739,5.660,9.716,0.000,34.340
42888,3.431,0.000,1.391,2.739,5.660,9.716,0.000,34.327
42942,3.431,0.000,1.391,2.739,5.660,9.716,0.000,34.371
42996,3.432,0.000,1.391,2.739,5.660,9.716,0.000,34.367
43050,3.432,0.000,1.391,2.739,5.660,9.716,0.000,34.291
43104,3.432,0.000,1.391,2.739,5.660,9.716,0.000,34.314
43158,3.432,0.000,1.391,2.739,5.660,9.716,0.000,34.268
43212,3.432,0.000,1.391,2.739,5.660,9.716,0.000,34.219
43266,3.432,0.000,1.391,2.739,5.660,9.716,0.000,34.248
43320,3.432,0.000,1.391,2.739,5.660,9.716,0.000,34.261
43374,3.432,0.000,1.391,2.739,5.660,9.716,0.000,34.234
43428,3.432,0.000,1.391,2.739,5.660,9.716,0.000,34.230
43482,3.432,0.000,1.391,2.739,5.660,9.716,0.000,34.209
43536,3.432,0.000,1.391,2.739,5.660,9.716,0.000,34.230
43590,3.432,0.000,1.391,2.739,5.660,9.716,0.000,34.263
43644,3.432,0.000,1.391,2.739,5.660,9.716,0.000,34.202
43698,3.432,0.000,1.391,2.739,5.660,9.716,0.000,34.234
43752,3.432,0.000,1.391,2.739,5.660,9.716,0.000,34.232
43806,3.433,0.000,1.391,2.739,5.660,9.716,0.000,34.224
43860,3.433,0.000,1.391,2.739,5.660,9.716,0.000,34.194
43914,3.433,0.000,1.391,2.739,5.660,9.716,0.000,34.189
43968,3.433,0.000,1.391,2.739,5.660,9.716,0.000,34.173
44022,3.433,0.000,1.391,2.739,5.660,9.716,0.000,34.205
44076,3.433,0.000,1.391,2.739,5.660,9.716,0.000,34.180
44130,3.433,0.000,1.391,2.739,5.660,9.716,0.000,34.210
44184,3.433,0.000,1.391,2.739,5.660,9.716,0.000,34.174
44238,3.433,0.000,1.391,2.739,5.660,9.716,0.000,34.230
44292,3.433,0.000,1.391,2.739,5.660,9.716,0.000,34.201
44346,3.433,0.000,1.391,2.739,5.660,9.716,0.000,34.247
44400,3.433,0.000,1.391,2.739,5.660,9.716,0.000,34.274
44454,3.433,0.000,1.391,2.739,5.660,9.716,0.000,34.225
44508,3.433,0.000,1.391,2.739,5.660,9.716,0.000,34.258
44562,3.433,0.000,1.391,2.739,5.660,9.716,0.000,34.216
44616,3.433,0.000,1.391,2.739,5.660,9.716,0.000,34.176
44668,3.410,0.000,1.391,2.747,5.660,9.743,0.002,34.224
44720,3.440,0.000,1.397,2.747,5.682,9.743,-0.001,34.303
44773,3.196,-3.350,1.397,2.764,5.682,9.797,-0.002,34.414
44827,3.132,-3.350,1.397,2.814,5.682,9.956,-0.001,35.067
44881,3.091,-3.350,1.397,2.865,5.682,10.113,-0.001,35.813
44935,3.051,-3.350,1.397,2.915,5.682,10.267,-0.001,36.577
44989,3.010,-3.350,1.397,2.965,5.682,10.419,-0.001,37.210
45043,2.965,-3.350,1.397,3.015,5.682,10.569,-0.001,37.995
45097,2.913,-3.350,1.397,3.066,5.682,10.717,-0.001,38.816
45150,3.271,0.000,1.397,3.082,5.682,10.766,0.001,39.046
45204,3.300,0.000,1.397,3.082,5.682,10.766,0.000,38.636
45258,3.310,0.000,1.397,3.082,5.682,10.766,0.000,38.116
45312,3.314,0.000,1.397,3.082,5.682,10.766,0.000,37.730
45366,3.316,0.000,1.397,3.082,5.682,10.766,0.000,37.435
45420,3.318,0.000,1.397,3.082,5.682,10.766,0.000,37.057
45474,3.319,0.000,1.397,3.082,5.682,10.766,0.000,36.749
45528,3.320,0.000,1.397,3.082,5.682,10.766,0.000,36.488
45582,3.321,0.000,1.397,3.082,5.682,10.766,0.000,36.308
45636,3.321,0.000,1.397,3.082,5.682,10.766,0.000,36.051
45690,3.322,0.000,1.397,3.082,5.682,10.766,0.000,35.875
45744,3.322,0.000,1.397,3.082,5.682,10.766,0.000,35.730
45798,3.322,0.000,1.397,3.082,5.682,10.766,0.000,35.539
45852,3.323,0.000,1.397,3.082,5.682,10.766,0.000,35.412
45906,3.323,0.000,1.397,3.082,5.682,10.766,0.000,35.281
45960,3.323,0.000,1.397,3.082,5.682,10.766,0.000,35.173
46014,3.324,0.000,1.397,3.082,5.682,10.766,0.000,35.078
46068,3.324,0.000,1.397,3.082,5.682,10.766,0.000,34.965
46122,3.324,0.000,1.397,3.082,5.682,10.766,0.000,34.913
46176,3.324,0.000,1.397,3.082,5.682,10.766,0.000,34.838
46230,3.324,0.000,1.397,3.082,5.682,10.766,0.000,34.747
46284,3.324,0.000,1.397,3.082,5.682,10.766,0.000,34.689
46338,3.325,0.000,1.397,3.082,5.682,10.766,0.000,34.577
46392,3.325,0.000,1.397,3.082,5.682,10.766,0.000,34.585
46446,3.325,0.000,1.397,3.082,5.682,10.766,0.000,34.555
46500,3.325,0.000,1.397,3.082,5.682,10.766,0.000,34.506
46554,3.325,0.000,1.397,3.082,5.682,10.766,0.000,34.469
46608,3.325,0.000,1.397,3.082,5.682,10.766,0.000,34.433
46662,3.325,0.000,1.397,3.082,5.682,10.766,0.000,34.409
46716,3.325,0.000,1.397,3.082,5.682,10.766,0.000,34.373
46770,3.325,0.000,1.397,3.082,5.682,10.766,0.000,34.357
46824,3.326,0.000,1.397,3.082,5.682,10.766,0.000,34.334
46878,3.326,0.000,1.397,3.082,5.682,10.766,0.000,34.333
46932,3.326,0.000,1.397,3.082,5.682,10.766,0.000,34.259
46986,3.326,0.000,1.397,3.082,5.682,10.766,0.000,34.288
47040,3.326,0.000,1.397,3.082,5.682,10.766,0.000,34.256
47094,3.326,0.000,1.397,3.082,5.682,10.766,0.000,34.265
47148,3.326,0.000,1.397,3.082,5.682,10.766,0.000,34.258
47202,3.326,0.000,1.397,3.082,5.682,10.766,0.000,34.241
47256,3.326,0.000,1.397,3.082,5.682,10.766,0.000,34.199
47310,3.326,0.000,1.397,3.082,5.682,10.766,0.000,34.219
47364,3.326,0.000,1.397,3.082,5.682,10.766,0.000,34.191
47418,3.326,0.000,1.397,3.082,5.682,10.766,0.000,34.182
47472,3.327,0.000,1.397,3.082,5.682,10.766,0.000,34.184
47526,3.326,0.000,1.397,3.082,5.682,10.766,0.000,34.181
47580,3.327,0.000,1.397,3.082,5.682,10.766,0.000,34.201
47634,3.327,0.000,1.397,3.082,5.682,10.766,0.000,34.197
47688,3.327,0.000,1.397,3.082,5.682,10.766,0.000,34.155
47742,3.327,0.000,1.397,3.082,5.682,10.766,0.000,34.185
47796,3.327,0.000,1.397,3.082,5.682,10.766,0.000,34.190
47850,3.327,0.000,1.397,3.082,5.682,10.766,0.000,34.166
47904,3.327,0.000,1.397,3.082,5.682,10.766,0.000,34.156
47958,3.327,0.000,1.397,3.082,5.682,10.766,0.000,34.189
48012,3.327,0.000,1.397,3.082,5.682,10.766,0.000,34.172
48066,3.327,0.000,1.397,3.082,5.682,10.766,0.000,34.177
48120,3.327,0.000,1.397,3.082,5.682,10.766,0.000,34.187
48174,3.327,0.000,1.397,3.082,5.682,10.766,0.000,34.163
48228,3.327,0.000,1.397,3.082,5.682,10.766,0.000,34.156
48282,3.327,0.000,1.397,3.082,5.682,10.766,0.000,34.144
48336,3.327,0.000,1.397,3.082,5.682,10.766,0.000,34.150
48390,3.327,0.000,1.397,3.082,5.682,10.766,0.000,34.169
48444,3.327,0.000,1.397,3.082,5.682,10.766,0.000,34.197
48498,3.327,0.000,1.397,3.082,5.682,10.766,0.000,34.183
48552,3.328,0.000,1.397,3.082,5.682,10.766,0.000,34.158
48606,3.328,0.000,1.397,3.082,5.682,10.766,0.000,34.160
48660,3.328,0.000,1.397,3.082,5.682,10.766,0.000,34.115
48714,3.328,0.000,1.397,3.082,5.682,10.766,0.000,34.184
48765,3.313,0.000,1.397,3.091,5.682,10.791,0.000,34.318
48818,3.019,-3.350,1.403,3.093,5.704,10.797,-0.033,34.354
48872,2.712,-3.350,1.403,3.143,5.704,10.939,-0.004,35.424
48926,2.523,-3.350,1.403,3.193,5.704,11.071,-0.004,37.153
48935,2.490,-3.350,1.403,3.202,5.704,11.092,-0.004,37.432