File: data/T25/HPPC/3.csv
time_s,voltage_v,current_a,chargecapacity_ah,dischargecapacity_ah,charge_energy_wh,discharge_energy_wh,voltagedot_v_per_s,temp_degc
1,4.032,0.000,0.000,0.000,0.000,0.000,0.000,25.282
45,4.032,0.000,0.000,0.000,0.000,0.000,0.000,25.221
88,4.145,1.625,0.013,0.000,0.052,0.000,0.001,25.309
132,4.160,1.625,0.033,0.000,0.135,0.000,0.000,25.458
176,4.171,1.625,0.052,0.000,0.218,0.000,0.000,25.567
220,4.180,1.625,0.072,0.000,0.300,0.000,0.000,25.664
264,4.189,1.625,0.092,0.000,0.384,0.000,0.000,25.768
308,4.197,1.625,0.112,0.000,0.467,0.000,0.000,25.876
352,4.200,1.549,0.132,0.000,0.549,0.000,0.000,25.919
396,4.200,1.446,0.150,0.000,0.626,0.000,0.000,25.972
440,4.200,1.353,0.167,0.000,0.698,0.000,0.000,25.974
484,4.200,1.268,0.183,0.000,0.765,0.000,0.000,25.986
528,4.200,1.189,0.198,0.000,0.828,0.000,0.000,25.986
572,4.200,1.114,0.212,0.000,0.887,0.000,0.000,26.028
616,4.200,1.044,0.225,0.000,0.942,0.000,0.000,26.005
660,4.200,0.977,0.237,0.000,0.994,0.000,0.000,26.045
704,4.200,0.913,0.249,0.000,1.042,0.000,0.000,25.935
748,4.200,0.854,0.260,0.000,1.088,0.000,0.000,25.930
792,4.200,0.798,0.270,0.000,1.130,0.000,0.000,25.908
836,4.200,0.746,0.279,0.000,1.170,0.000,0.000,25.852
880,4.200,0.697,0.288,0.000,1.207,0.000,0.000,25.880
924,4.200,0.651,0.296,0.000,1.241,0.000,0.000,25.788
968,4.200,0.608,0.304,0.000,1.274,0.000,0.000,25.804
1012,4.200,0.569,0.311,0.000,1.304,0.000,0.000,25.736
1056,4.200,0.531,0.318,0.000,1.332,0.000,0.000,25.726
1100,4.200,0.496,0.324,0.000,1.358,0.000,0.000,25.683
1144,4.200,0.464,0.330,0.000,1.383,0.000,0.000,25.649
1188,4.200,0.435,0.336,0.000,1.406,0.000,0.000,25.649
1232,4.200,0.407,0.341,0.000,1.428,0.000,0.000,25.561
1276,4.200,0.382,0.346,0.000,1.448,0.000,0.000,25.564
1320,4.200,0.358,0.350,0.000,1.467,0.000,0.000,25.546
1364,4.200,0.337,0.354,0.000,1.485,0.000,0.000,25.534
1408,4.200,0.316,0.358,0.000,1.502,0.000,0.000,25.506
1452,4.200,0.297,0.362,0.000,1.517,0.000,0.000,25.451
1496,4.200,0.279,0.366,0.000,1.532,0.000,0.000,25.492
1540,4.200,0.263,0.369,0.000,1.546,0.000,0.000,25.458
1584,4.200,0.248,0.372,0.000,1.559,0.000,0.000,25.407
1628,4.200,0.234,0.375,0.000,1.571,0.000,0.000,25.431
1672,4.200,0.221,0.378,0.000,1.583,0.000,0.000,25.420
1716,4.200,0.209,0.380,0.000,1.594,0.000,0.000,25.400
1760,4.200,0.197,0.383,0.000,1.604,0.000,0.000,25.416
1804,4.200,0.186,0.385,0.000,1.614,0.000,0.000,25.364
1848,4.200,0.177,0.387,0.000,1.624,0.000,0.000,25.333
1892,4.200,0.167,0.389,0.000,1.632,0.000,0.000,25.358
1936,4.200,0.159,0.391,0.000,1.641,0.000,0.000,25.347
1980,4.200,0.150,0.393,0.000,1.649,0.000,0.000,25.360
2024,4.200,0.143,0.395,0.000,1.656,0.000,0.000,25.354
2068,4.200,0.135,0.397,0.000,1.663,0.000,0.000,25.354
2112,4.200,0.129,0.398,0.000,1.670,0.000,0.000,25.330
2156,4.200,0.122,0.400,0.000,1.677,0.000,0.000,25.307
2200,4.200,0.117,0.401,0.000,1.683,0.000,0.000,25.316
2244,4.200,0.111,0.403,0.000,1.689,0.000,0.000,25.282
2288,4.200,0.107,0.404,0.000,1.694,0.000,0.000,25.273
2332,4.200,0.101,0.405,0.000,1.699,0.000,0.000,25.291
2376,4.200,0.096,0.407,0.000,1.705,0.000,0.000,25.293
2420,4.200,0.092,0.408,0.000,1.709,0.000,0.000,25.281
2464,4.200,0.088,0.409,0.000,1.714,0.000,0.000,25.252
2508,4.200,0.084,0.410,0.000,1.718,0.000,0.000,25.314
2552,4.200,0.081,0.411,0.000,1.723,0.000,0.000,25.272
2596,4.200,0.077,0.412,0.000,1.727,0.000,0.000,25.285
2640,4.200,0.074,0.413,0.000,1.731,0.000,0.000,25.259
2684,4.200,0.071,0.414,0.000,1.734,0.000,0.000,25.248
2728,4.200,0.068,0.415,0.000,1.738,0.000,0.000,25.239
2772,4.194,0.000,0.415,0.000,1.740,0.000,0.000,25.289
2816,4.193,0.000,0.415,0.000,1.740,0.000,0.000,25.240
2860,4.192,0.000,0.415,0.000,1.740,0.000,0.000,25.248
2904,4.191,0.000,0.415,0.000,1.740,0.000,0.000,25.230
2948,4.191,0.000,0.415,0.000,1.740,0.000,0.000,25.219
2992,4.190,0.000,0.415,0.000,1.740,0.000,0.000,25.257
3036,4.189,0.000,0.415,0.000,1.740,0.000,0.000,25.263
3080,4.189,0.000,0.415,0.000,1.740,0.000,0.000,25.245
3124,4.189,0.000,0.415,0.000,1.740,0.000,0.000,25.249
3168,4.189,0.000,0.415,0.000,1.740,0.000,0.000,25.241
3212,4.188,0.000,0.415,0.000,1.740,0.000,0.000,25.249
3256,4.188,0.000,0.415,0.000,1.740,0.000,0.000,25.223
3300,4.188,0.000,0.415,0.000,1.740,0.000,0.000,25.212
3344,4.188,0.000,0.415,0.000,1.740,0.000,0.000,25.175
3388,4.187,0.000,0.415,0.000,1.740,0.000,0.000,25.216
3432,4.187,0.000,0.415,0.000,1.740,0.000,0.000,25.196
3476,4.187,0.000,0.415,0.000,1.740,0.000,0.000,25.211
3520,4.187,0.000,0.415,0.000,1.740,0.000,0.000,25.241
3564,4.187,0.000,0.415,0.000,1.740,0.000,0.000,25.197
3608,4.187,0.000,0.415,0.000,1.740,0.000,0.000,25.210
3652,4.186,0.000,0.415,0.000,1.740,0.000,0.000,25.215
3696,4.186,0.000,0.415,0.000,1.740,0.000,0.000,25.172
3740,4.186,0.000,0.415,0.000,1.740,0.000,0.000,25.208
3784,4.186,0.000,0.415,0.000,1.740,0.000,0.000,25.198
3828,4.186,0.000,0.415,0.000,1.740,0.000,0.000,25.158
3872,4.186,0.000,0.415,0.000,1.740,0.000,0.000,25.228
3916,4.186,0.000,0.415,0.000,1.740,0.000,0.000,25.209
3960,4.186,0.000,0.415,0.000,1.740,0.000,0.000,25.193
4004,4.185,0.000,0.415,0.000,1.740,0.000,0.000,25.204
4048,4.185,0.000,0.415,0.000,1.740,0.000,0.000,25.186
4092,4.185,0.000,0.415,0.000,1.740,0.000,0.000,25.176
4136,4.185,0.000,0.415,0.000,1.740,0.000,0.000,25.166
4180,4.185,0.000,0.415,0.000,1.740,0.000,0.000,25.193
4224,4.185,0.000,0.415,0.000,1.740,0.000,0.000,25.193
4268,4.185,0.000,0.415,0.000,1.740,0.000,0.000,25.174
4312,4.185,0.000,0.415,0.000,1.740,0.000,0.000,25.210
4356,4.185,0.000,0.415,0.000,1.740,0.000,0.000,25.169
4400,4.185,0.000,0.415,0.000,1.740,0.000,0.000,25.149
4444,4.185,0.000,0.415,0.000,1.740,0.000,0.000,25.207
4488,4.185,0.000,0.415,0.000,1.740,0.000,0.000,25.200
4532,4.185,0.000,0.415,0.000,1.740,0.000,0.000,25.150
4576,4.184,0.000,0.415,0.000,1.740,0.000,0.000,25.145
4620,4.184,0.000,0.415,0.000,1.740,0.000,0.000,25.187
4664,4.184,0.000,0.415,0.000,1.740,0.000,0.000,25.189
4708,4.184,0.000,0.415,0.000,1.740,0.000,0.000,25.214
4752,4.184,0.000,0.415,0.000,1.740,0.000,0.000,25.182
4796,4.184,0.000,0.415,0.000,1.740,0.000,0.000,25.191
4840,4.184,0.000,0.415,0.000,1.740,0.000,0.000,25.203
4884,4.184,0.000,0.415,0.000,1.740,0.000,0.000,25.188
4928,4.184,0.000,0.415,0.000,1.740,0.000,0.000,25.192
4972,4.184,0.000,0.415,0.000,1.740,0.000,0.000,25.202
5016,4.184,0.000,0.415,0.000,1.740,0.000,0.000,25.169
5060,4.184,0.000,0.415,0.000,1.740,0.000,0.000,25.206
5104,4.184,0.000,0.415,0.000,1.740,0.000,0.000,25.193
5148,4.184,0.000,0.415,0.000,1.740,0.000,0.000,25.183
5192,4.184,0.000,0.415,0.000,1.740,0.000,0.000,25.147
5236,4.184,0.000,0.415,0.000,1.740,0.000,0.000,25.165
5280,4.184,0.000,0.415,0.000,1.740,0.000,0.000,25.157
5324,4.184,0.000,0.415,0.000,1.740,0.000,0.000,25.211
5368,4.183,0.000,0.415,0.000,1.740,0.000,0.000,25.170
5412,4.183,0.000,0.415,0.000,1.740,0.000,0.000,25.202
5456,4.183,0.000,0.415,0.000,1.740,0.000,0.000,25.176
5500,4.183,0.000,0.415,0.000,1.740,0.000,0.000,25.171
5544,4.183,0.000,0.415,0.000,1.740,0.000,0.000,25.166
5588,4.183,0.000,0.415,0.000,1.740,0.000,0.000,25.191
5632,4.183,0.000,0.415,0.000,1.740,0.000,0.000,25.156
5676,4.183,0.000,0.415,0.000,1.740,0.000,0.000,25.158
5720,4.183,0.000,0.415,0.000,1.740,0.000,0.000,25.161
5764,4.183,0.000,0.415,0.000,1.740,0.000,0.000,25.169
5808,4.183,0.000,0.415,0.000,1.740,0.000,0.000,25.164
5852,4.183,0.000,0.415,0.000,1.740,0.000,0.000,25.195
5896,4.183,0.000,0.415,0.000,1.740,0.000,0.000,25.211
5940,4.183,0.000,0.415,0.000,1.740,0.000,0.000,25.173
5984,4.183,0.000,0.415,0.000,1.740,0.000,0.000,25.166
6028,4.183,0.000,0.415,0.000,1.740,0.000,0.000,25.189
6072,4.183,0.000,0.415,0.000,1.740,0.000,0.000,25.186
6116,4.183,0.000,0.415,0.000,1.740,0.000,0.000,25.182
6160,4.183,0.000,0.415,0.000,1.740,0.000,0.000,25.197
6204,4.183,0.000,0.415,0.000,1.740,0.000,0.000,25.177
6248,4.183,0.000,0.415,0.000,1.740,0.000,0.000,25.176
6292,4.183,0.000,0.415,0.000,1.740,0.000,0.000,25.177
6336,4.183,0.000,0.415,0.000,1.740,0.000,0.000,25.172
6379,3.906,-3.350,0.415,0.017,1.740,0.066,-0.002,25.273
6423,3.872,-3.350,0.415,0.058,1.740,0.225,-0.001,25.593
6467,3.855,-3.350,0.415,0.099,1.740,0.383,0.000,26.058
6511,3.843,-3.350,0.415,0.140,1.740,0.541,0.000,26.367
6555,3.831,-3.350,0.415,0.181,1.740,0.698,0.000,26.652
6599,3.821,-3.350,0.415,0.221,1.740,0.854,0.000,26.879
6643,3.810,-3.350,0.415,0.262,1.740,1.011,0.000,27.091
6687,3.798,-3.350,0.415,0.303,1.740,1.166,0.000,27.270
6730,3.983,0.000,0.415,0.335,1.740,1.287,0.002,27.388
6774,4.017,0.000,0.415,0.335,1.740,1.287,0.000,27.290
6818,4.031,0.000,0.415,0.335,1.740,1.287,0.000,26.952
6862,4.040,0.000,0.415,0.335,1.740,1.287,0.000,26.784
6906,4.045,0.000,0.415,0.335,1.740,1.287,0.000,26.580
6950,4.048,0.000,0.415,0.335,1.740,1.287,0.000,26.384
6994,4.050,0.000,0.415,0.335,1.740,1.287,0.000,26.174
7038,4.051,0.000,0.415,0.335,1.740,1.287,0.000,26.071
7082,4.052,0.000,0.415,0.335,1.740,1.287,0.000,25.923
7126,4.053,0.000,0.415,0.335,1.740,1.287,0.000,25.876
7170,4.053,0.000,0.415,0.335,1.740,1.287,0.000,25.799
7214,4.054,0.000,0.415,0.335,1.740,1.287,0.000,25.725
7258,4.054,0.000,0.415,0.335,1.740,1.287,0.000,25.647
7302,4.054,0.000,0.415,0.335,1.740,1.287,0.000,25.590
7346,4.055,0.000,0.415,0.335,1.740,1.287,0.000,25.542
7390,4.055,0.000,0.415,0.335,1.740,1.287,0.000,25.534
7434,4.055,0.000,0.415,0.335,1.740,1.287,0.000,25.461
7478,4.055,0.000,0.415,0.335,1.740,1.287,0.000,25.404
7522,4.056,0.000,0.415,0.335,1.740,1.287,0.000,25.444
7566,4.056,0.000,0.415,0.335,1.740,1.287,0.000,25.382
7610,4.056,0.000,0.415,0.335,1.740,1.287,0.000,25.321
7654,4.056,0.000,0.415,0.335,1.740,1.287,0.000,25.267
7698,4.056,0.000,0.415,0.335,1.740,1.287,0.000,25.313
7742,4.056,0.000,0.415,0.335,1.740,1.287,0.000,25.284
7786,4.056,0.000,0.415,0.335,1.740,1.287,0.000,25.325
7830,4.057,0.000,0.415,0.335,1.740,1.287,0.000,25.269
7874,4.057,0.000,0.415,0.335,1.740,1.287,0.000,25.266
7918,4.057,0.000,0.415,0.335,1.740,1.287,0.000,25.256
7962,4.057,0.000,0.415,0.335,1.740,1.287,0.000,25.246
8006,4.057,0.000,0.415,0.335,1.740,1.287,0.000,25.229
8050,4.057,0.000,0.415,0.335,1.740,1.287,0.000,25.203
8094,4.057,0.000,0.415,0.335,1.740,1.287,0.000,25.183
8138,4.057,0.000,0.415,0.335,1.740,1.287,0.000,25.221
8182,4.057,0.000,0.415,0.335,1.740,1.287,0.000,25.179
8226,4.057,0.000,0.415,0.335,1.740,1.287,0.000,25.239
8270,4.057,0.000,0.415,0.335,1.740,1.287,0.000,25.180
8314,4.057,0.000,0.415,0.335,1.740,1.287,0.000,25.166
8358,4.057,0.000,0.415,0.335,1.740,1.287,0.000,25.203
8402,4.057,0.000,0.415,0.335,1.740,1.287,0.000,25.156
8446,4.057,0.000,0.415,0.335,1.740,1.287,0.000,25.170
8490,4.057,0.000,0.415,0.335,1.740,1.287,0.000,25.151
8534,4.058,0.000,0.415,0.335,1.740,1.287,0.000,25.166
8578,4.058,0.000,0.415,0.335,1.740,1.287,0.000,25.185
8622,4.058,0.000,0.415,0.335,1.740,1.287,0.000,25.165
8666,4.058,0.000,0.415,0.335,1.740,1.287,0.000,25.170
8710,4.058,0.000,0.415,0.335,1.740,1.287,0.000,25.183
8754,4.058,0.000,0.415,0.335,1.740,1.287,0.000,25.149
8798,4.058,0.000,0.415,0.335,1.740,1.287,0.000,25.153
8842,4.058,0.000,0.415,0.335,1.740,1.287,0.000,25.152
8886,4.058,0.000,0.415,0.335,1.740,1.287,0.000,25.147
8930,4.058,0.000,0.415,0.335,1.740,1.287,0.000,25.136
8974,4.058,0.000,0.415,0.335,1.740,1.287,0.000,25.185
9018,4.058,0.000,0.415,0.335,1.740,1.287,0.000,25.194
9062,4.058,0.000,0.415,0.335,1.740,1.287,0.000,25.192
9106,4.058,0.000,0.415,0.335,1.740,1.287,0.000,25.178
9150,4.058,0.000,0.415,0.335,1.740,1.287,0.000,25.166
9194,4.058,0.000,0.415,0.335,1.740,1.287,0.000,25.204
9238,4.058,0.000,0.415,0.335,1.740,1.287,0.000,25.190
9282,4.058,0.000,0.415,0.335,1.740,1.287,0.000,25.167
9326,4.058,0.000,0.415,0.335,1.740,1.287,0.000,25.166
9370,4.058,0.000,0.415,0.335,1.740,1.287,0.000,25.223
9414,4.058,0.000,0.415,0.335,1.740,1.287,0.000,25.193
9458,4.058,0.000,0.415,0.335,1.740,1.287,0.000,25.204
9502,4.058,0.000,0.415,0.335,1.740,1.287,0.000,25.140
9546,4.058,0.000,0.415,0.335,1.740,1.287,0.000,25.167
9590,4.058,0.000,0.415,0.335,1.740,1.287,0.000,25.188
9634,4.058,0.000,0.415,0.335,1.740,1.287,0.000,25.204
9678,4.058,0.000,0.415,0.335,1.740,1.287,0.000,25.177
9722,4.058,0.000,0.415,0.335,1.740,1.287,0.000,25.190
9766,4.058,0.000,0.415,0.335,1.740,1.287,0.000,25.178
9810,4.058,0.000,0.415,0.335,1.740,1.287,0.000,25.172
9854,4.058,0.000,0.415,0.335,1.740,1.287,0.000,25.172
9898,4.058,0.000,0.415,0.335,1.740,1.287,0.000,25.161
9942,4.058,0.000,0.415,0.335,1.740,1.287,0.000,25.188
9986,4.058,0.000,0.415,0.335,1.740,1.287,0.000,25.185
10030,4.058,0.000,0.415,0.335,1.740,1.287,0.000,25.158
10074,4.058,0.000,0.415,0.335,1.740,1.287,0.000,25.176
10118,4.058,0.000,0.415,0.335,1.740,1.287,0.000,25.155
10162,4.058,0.000,0.415,0.335,1.740,1.287,0.000,25.139
10206,4.058,0.000,0.415,0.335,1.740,1.287,0.000,25.133
10250,4.058,0.000,0.415,0.335,1.740,1.287,0.000,25.180
10294,4.058,0.000,0.415,0.335,1.740,1.287,0.000,25.202
10336,4.036,0.000,0.415,0.343,1.740,1.319,0.002,25.190
10379,4.192,2.250,0.420,0.343,1.761,1.319,0.002,25.217
10421,4.060,0.000,0.421,0.343,1.766,1.319,0.000,25.275
10465,3.796,-3.350,0.421,0.384,1.766,1.476,-0.001,25.473
10509,3.771,-3.350,0.421,0.425,1.766,1.631,-0.001,25.754
10553,3.753,-3.350,0.421,0.466,1.766,1.785,0.000,26.073
10597,3.738,-3.350,0.421,0.507,1.766,1.938,0.000,26.348
10641,3.724,-3.350,0.421,0.548,1.766,2.091,0.000,26.551
10685,3.710,-3.350,0.421,0.589,1.766,2.243,0.000,26.793
10729,3.697,-3.350,0.421,0.630,1.766,2.395,0.000,26.943
10773,3.684,-3.350,0.421,0.671,1.766,2.546,0.000,27.108
10816,3.891,0.000,0.421,0.679,1.766,2.573,0.001,27.079
10860,3.905,0.000,0.421,0.679,1.766,2.573,0.000,26.886
10904,3.912,0.000,0.421,0.679,1.766,2.573,0.000,26.722
10948,3.916,0.000,0.421,0.679,1.766,2.573,0.000,26.526
10992,3.919,0.000,0.421,0.679,1.766,2.573,0.000,26.401
11036,3.920,0.000,0.421,0.679,1.766,2.573,0.000,26.264
11080,3.922,0.000,0.421,0.679,1.766,2.573,0.000,26.180
11124,3.924,0.000,0.421,0.679,1.766,2.573,0.000,26.076
11168,3.925,0.000,0.421,0.679,1.766,2.573,0.000,25.985
11212,3.927,0.000,0.421,0.679,1.766,2.573,0.000,25.908
11256,3.929,0.000,0.421,0.679,1.766,2.573,0.000,25.859
11300,3.931,0.000,0.421,0.679,1.766,2.573,0.000,25.712
11344,3.933,0.000,0.421,0.679,1.766,2.573,0.000,25.700
11388,3.935,0.000,0.421,0.679,1.766,2.573,0.000,25.623
11432,3.936,0.000,0.421,0.679,1.766,2.573,0.000,25.598
11476,3.938,0.000,0.421,0.679,1.766,2.573,0.000,25.547
11520,3.939,0.000,0.421,0.679,1.766,2.573,0.000,25.507
11564,3.940,0.000,0.421,0.679,1.766,2.573,0.000,25.468
11608,3.940,0.000,0.421,0.679,1.766,2.573,0.000,25.444
11652,3.941,0.000,0.421,0.679,1.766,2.573,0.000,25.403
11696,3.941,0.000,0.421,0.679,1.766,2.573,0.000,25.375
11740,3.942,0.000,0.421,0.679,1.766,2.573,0.000,25.358
11784,3.942,0.000,0.421,0.679,1.766,2.573,0.000,25.313
11828,3.942,0.000,0.421,0.679,1.766,2.573,0.000,25.278
11872,3.942,0.000,0.421,0.679,1.766,2.573,0.000,25.324
11916,3.942,0.000,0.421,0.679,1.766,2.573,0.000,25.236
11960,3.943,0.000,0.421,0.679,1.766,2.573,0.000,25.247
12004,3.943,0.000,0.421,0.679,1.766,2.573,0.000,25.189
12048,3.943,0.000,0.421,0.679,1.766,2.573,0.000,25.188
12092,3.943,0.000,0.421,0.679,1.766,2.573,0.000,25.131
12136,3.943,0.000,0.421,0.679,1.766,2.573,0.000,25.144
12180,3.943,0.000,0.421,0.679,1.766,2.573,0.000,25.195
12224,3.943,0.000,0.421,0.679,1.766,2.573,0.000,25.146
12268,3.943,0.000,0.421,0.679,1.766,2.573,0.000,25.158
12312,3.943,0.000,0.421,0.679,1.766,2.573,0.000,25.191
12356,3.943,0.000,0.421,0.679,1.766,2.573,0.000,25.116
12400,3.943,0.000,0.421,0.679,1.766,2.573,0.000,25.137
12444,3.943,0.000,0.421,0.679,1.766,2.573,0.000,25.150
12488,3.943,0.000,0.421,0.679,1.766,2.573,0.000,25.149
12532,3.943,0.000,0.421,0.679,1.766,2.573,0.000,25.175
12576,3.943,0.000,0.421,0.679,1.766,2.573,0.000,25.137
12620,3.943,0.000,0.421,0.679,1.766,2.573,0.000,25.144
12664,3.943,0.000,0.421,0.679,1.766,2.573,0.000,25.197
12708,3.943,0.000,0.421,0.679,1.766,2.573,0.000,25.148
12752,3.943,0.000,0.421,0.679,1.766,2.573,0.000,25.161
12796,3.943,0.000,0.421,0.679,1.766,2.573,0.000,25.175
12840,3.943,0.000,0.421,0.679,1.766,2.573,0.000,25.131
12884,3.944,0.000,0.421,0.679,1.766,2.573,0.000,25.104
12928,3.944,0.000,0.421,0.679,1.766,2.573,0.000,25.088
12972,3.944,0.000,0.421,0.679,1.766,2.573,0.000,25.133
13016,3.944,0.000,0.421,0.679,1.766,2.573,0.000,25.116
13060,3.944,0.000,0.421,0.679,1.766,2.573,0.000,25.149
13104,3.944,0.000,0.421,0.679,1.766,2.573,0.000,25.128
13148,3.944,0.000,0.421,0.679,1.766,2.573,0.000,25.145
13192,3.944,0.000,0.421,0.679,1.766,2.573,0.000,25.130
13236,3.944,0.000,0.421,0.679,1.766,2.573,0.000,25.160
13280,3.944,0.000,0.421,0.679,1.766,2.573,0.000,25.122
13324,3.944,0.000,0.421,0.679,1.766,2.573,0.000,25.136
13368,3.944,0.000,0.421,0.679,1.766,2.573,0.000,25.143
13412,3.944,0.000,0.421,0.679,1.766,2.573,0.000,25.104
13456,3.944,0.000,0.421,0.679,1.766,2.573,0.000,25.150
13500,3.944,0.000,0.421,0.679,1.766,2.573,0.000,25.138
13544,3.944,0.000,0.421,0.679,1.766,2.573,0.000,25.125
13588,3.944,0.000,0.421,0.679,1.766,2.573,0.000,25.115
13632,3.944,0.000,0.421,0.679,1.766,2.573,0.000,25.156
13676,3.944,0.000,0.421,0.679,1.766,2.573,0.000,25.131
13720,3.944,0.000,0.421,0.679,1.766,2.573,0.000,25.123
13764,3.944,0.000,0.421,0.679,1.766,2.573,0.000,25.153
13808,3.944,0.000,0.421,0.679,1.766,2.573,0.000,25.155
13852,3.944,0.000,0.421,0.679,1.766,2.573,0.000,25.111
13896,3.944,0.000,0.421,0.679,1.766,2.573,0.000,25.164
13940,3.944,0.000,0.421,0.679,1.766,2.573,0.000,25.172
13984,3.944,0.000,0.421,0.679,1.766,2.573,0.000,25.145
14028,3.944,0.000,0.421,0.679,1.766,2.573,0.000,25.148
14072,3.944,0.000,0.421,0.679,1.766,2.573,0.000,25.127
14116,3.944,0.000,0.421,0.679,1.766,2.573,0.000,25.131
14160,3.944,0.000,0.421,0.679,1.766,2.573,0.000,25.125
14204,3.944,0.000,0.421,0.679,1.766,2.573,0.000,25.136
14248,3.944,0.000,0.421,0.679,1.766,2.573,0.000,25.171
14292,3.944,0.000,0.421,0.679,1.766,2.573,0.000,25.109
14336,3.944,0.000,0.421,0.679,1.766,2.573,0.000,25.110
14380,3.944,0.000,0.421,0.679,1.766,2.573,0.000,25.133
14422,3.932,0.000,0.421,0.687,1.766,2.605,0.000,25.169
14465,3.947,0.000,0.428,0.687,1.792,2.605,0.000,25.209
14508,3.709,-3.350,0.428,0.711,1.792,2.695,-0.001,25.288
14552,3.681,-3.350,0.428,0.752,1.792,2.846,0.000,25.527
14596,3.664,-3.350,0.428,0.793,1.792,2.997,0.000,25.771
14640,3.649,-3.350,0.428,0.834,1.792,3.147,0.000,26.009
14684,3.635,-3.350,0.428,0.875,1.792,3.296,0.000,26.244
14728,3.621,-3.350,0.428,0.916,1.792,3.444,0.000,26.474
14772,3.609,-3.350,0.428,0.957,1.792,3.592,0.000,26.650
14816,3.596,-3.350,0.428,0.998,1.792,3.740,0.000,26.870
14859,3.783,0.000,0.428,1.022,1.792,3.827,0.001,26.984
14903,3.807,0.000,0.428,1.022,1.792,3.827,0.000,26.812
14947,3.818,0.000,0.428,1.022,1.792,3.827,0.000,26.635
14991,3.823,0.000,0.428,1.022,1.792,3.827,0.000,26.506
15035,3.826,0.000,0.428,1.022,1.792,3.827,0.000,26.350
15079,3.828,0.000,0.428,1.022,1.792,3.827,0.000,26.183
15123,3.830,0.000,0.428,1.022,1.792,3.827,0.000,26.075
15167,3.831,0.000,0.428,1.022,1.792,3.827,0.000,26.002
15211,3.832,0.000,0.428,1.022,1.792,3.827,0.000,25.902
15255,3.833,0.000,0.428,1.022,1.792,3.827,0.000,25.897
15299,3.833,0.000,0.428,1.022,1.792,3.827,0.000,25.804
15343,3.834,0.000,0.428,1.022,1.792,3.827,0.000,25.732
15387,3.834,0.000,0.428,1.022,1.792,3.827,0.000,25.704
15431,3.835,0.000,0.428,1.022,1.792,3.827,0.000,25.652
15475,3.836,0.000,0.428,1.022,1.792,3.827,0.000,25.622
15519,3.836,0.000,0.428,1.022,1.792,3.827,0.000,25.568
15563,3.837,0.000,0.428,1.022,1.792,3.827,0.000,25.561
15607,3.837,0.000,0.428,1.022,1.792,3.827,0.000,25.554
15651,3.838,0.000,0.428,1.022,1.792,3.827,0.000,25.501
15695,3.839,0.000,0.428,1.022,1.792,3.827,0.000,25.473
15739,3.840,0.000,0.428,1.022,1.792,3.827,0.000,25.478
15783,3.840,0.000,0.428,1.022,1.792,3.827,0.000,25.428
15827,3.841,0.000,0.428,1.022,1.792,3.827,0.000,25.456
15871,3.842,0.000,0.428,1.022,1.792,3.827,0.000,25.443
15915,3.843,0.000,0.428,1.022,1.792,3.827,0.000,25.367
15959,3.844,0.000,0.428,1.022,1.792,3.827,0.000,25.459
16003,3.845,0.000,0.428,1.022,1.792,3.827,0.000,25.354
16047,3.846,0.000,0.428,1.022,1.792,3.827,0.000,25.336
16091,3.847,0.000,0.428,1.022,1.792,3.827,0.000,25.343
16135,3.849,0.000,0.428,1.022,1.792,3.827,0.000,25.307
16179,3.850,0.000,0.428,1.022,1.792,3.827,0.000,25.316
16223,3.851,0.000,0.428,1.022,1.792,3.827,0.000,25.255
16267,3.852,0.000,0.428,1.022,1.792,3.827,0.000,25.279
16311,3.853,0.000,0.428,1.022,1.792,3.827,0.000,25.289
16355,3.854,0.000,0.428,1.022,1.792,3.827,0.000,25.236
16399,3.855,0.000,0.428,1.022,1.792,3.827,0.000,25.262
16443,3.855,0.000,0.428,1.022,1.792,3.827,0.000,25.222
16487,3.856,0.000,0.428,1.022,1.792,3.827,0.000,25.223
16531,3.856,0.000,0.428,1.022,1.792,3.827,0.000,25.207
16575,3.857,0.000,0.428,1.022,1.792,3.827,0.000,25.160
16619,3.857,0.000,0.428,1.022,1.792,3.827,0.000,25.191
16663,3.857,0.000,0.428,1.022,1.792,3.827,0.000,25.181
16707,3.857,0.000,0.428,1.022,1.792,3.827,0.000,25.179
16751,3.857,0.000,0.428,1.022,1.792,3.827,0.000,25.165
16795,3.858,0.000,0.428,1.022,1.792,3.827,0.000,25.158
16839,3.858,0.000,0.428,1.022,1.792,3.827,0.000,25.193
16883,3.858,0.000,0.428,1.022,1.792,3.827,0.000,25.168
16927,3.858,0.000,0.428,1.022,1.792,3.827,0.000,25.161
16971,3.858,0.000,0.428,1.022,1.792,3.827,0.000,25.159
17015,3.858,0.000,0.428,1.022,1.792,3.827,0.000,25.137
17059,3.858,0.000,0.428,1.022,1.792,3.827,0.000,25.149
17103,3.858,0.000,0.428,1.022,1.792,3.827,0.000,25.188
17147,3.858,0.000,0.428,1.022,1.792,3.827,0.000,25.135
17191,3.858,0.000,0.428,1.022,1.792,3.827,0.000,25.182
17235,3.858,0.000,0.428,1.022,1.792,3.827,0.000,25.154
17279,3.858,0.000,0.428,1.022,1.792,3.827,0.000,25.152
17323,3.858,0.000,0.428,1.022,1.792,3.827,0.000,25.161
17367,3.859,0.000,0.428,1.022,1.792,3.827,0.000,25.160
17411,3.859,0.000,0.428,1.022,1.792,3.827,0.000,25.142
17455,3.859,0.000,0.428,1.022,1.792,3.827,0.000,25.166
17499,3.859,0.000,0.428,1.022,1.792,3.827,0.000,25.169
17543,3.859,0.000,0.428,1.022,1.792,3.827,0.000,25.142
17587,3.859,0.000,0.428,1.022,1.792,3.827,0.000,25.139
17631,3.859,0.000,0.428,1.022,1.792,3.827,0.000,25.141
17675,3.859,0.000,0.428,1.022,1.792,3.827,0.000,25.131
17719,3.859,0.000,0.428,1.022,1.792,3.827,0.000,25.148
17763,3.859,0.000,0.428,1.022,1.792,3.827,0.000,25.127
17807,3.859,0.000,0.428,1.022,1.792,3.827,0.000,25.114
17851,3.859,0.000,0.428,1.022,1.792,3.827,0.000,25.117
17895,3.859,0.000,0.428,1.022,1.792,3.827,0.000,25.096
17939,3.859,0.000,0.428,1.022,1.792,3.827,0.000,25.190
17983,3.859,0.000,0.428,1.022,1.792,3.827,0.000,25.201
18027,3.859,0.000,0.428,1.022,1.792,3.827,0.000,25.144
18071,3.859,0.000,0.428,1.022,1.792,3.827,0.000,25.179
18115,3.859,0.000,0.428,1.022,1.792,3.827,0.000,25.138
18159,3.859,0.000,0.428,1.022,1.792,3.827,0.000,25.115
18203,3.859,0.000,0.428,1.022,1.792,3.827,0.000,25.070
18247,3.859,0.000,0.428,1.022,1.792,3.827,0.000,25.134
18291,3.859,0.000,0.428,1.022,1.792,3.827,0.000,25.066
18335,3.859,0.000,0.428,1.022,1.792,3.827,0.000,25.062
18379,3.859,0.000,0.428,1.022,1.792,3.827,0.000,25.035
18423,3.859,0.000,0.428,1.022,1.792,3.827,0.000,25.091
18465,3.840,0.000,0.428,1.030,1.792,3.858,0.000,25.123
18507,3.867,0.000,0.434,1.030,1.817,3.858,-0.001,25.213
18550,3.655,-3.350,0.434,1.038,1.817,3.885,-0.003,25.251
18594,3.607,-3.350,0.434,1.079,1.817,4.033,-0.001,25.472
18638,3.588,-3.350,0.434,1.120,1.817,4.181,-0.001,25.687
18682,3.571,-3.350,0.434,1.161,1.817,4.327,0.000,25.881
18726,3.556,-3.350,0.434,1.202,1.817,4.473,0.000,26.081
18770,3.540,-3.350,0.434,1.243,1.817,4.618,0.000,26.366
18814,3.524,-3.350,0.434,1.283,1.817,4.763,0.000,26.506
18858,3.509,-3.350,0.434,1.324,1.817,4.907,0.000,26.703
18902,3.495,-3.350,0.434,1.365,1.817,5.050,0.000,26.901
18945,3.706,0.000,0.434,1.365,1.817,5.050,0.000,26.883
18989,3.720,0.000,0.434,1.365,1.817,5.050,0.000,26.683
19033,3.727,0.000,0.434,1.365,1.817,5.050,0.000,26.470
19077,3.731,0.000,0.434,1.365,1.817,5.050,0.000,26.350
19121,3.734,0.000,0.434,1.365,1.817,5.050,0.000,26.158
19165,3.735,0.000,0.434,1.365,1.817,5.050,0.000,26.109
19209,3.737,0.000,0.434,1.365,1.817,5.050,0.000,25.956
19253,3.738,0.000,0.434,1.365,1.817,5.050,0.000,25.865
19297,3.739,0.000,0.434,1.365,1.817,5.050,0.000,25.795
19341,3.740,0.000,0.434,1.365,1.817,5.050,0.000,25.780
19385,3.740,0.000,0.434,1.365,1.817,5.050,0.000,25.694
19429,3.741,0.000,0.434,1.365,1.817,5.050,0.000,25.660
19473,3.742,0.000,0.434,1.365,1.817,5.050,0.000,25.623
19517,3.742,0.000,0.434,1.365,1.817,5.050,0.000,25.573
19561,3.742,0.000,0.434,1.365,1.817,5.050,0.000,25.564
19605,3.743,0.000,0.434,1.365,1.817,5.050,0.000,25.519
19649,3.743,0.000,0.434,1.365,1.817,5.050,0.000,25.531
19693,3.743,0.000,0.434,1.365,1.817,5.050,0.000,25.455
19737,3.744,0.000,0.434,1.365,1.817,5.050,0.000,25.446
19781,3.744,0.000,0.434,1.365,1.817,5.050,0.000,25.438
19825,3.744,0.000,0.434,1.365,1.817,5.050,0.000,25.455
19869,3.745,0.000,0.434,1.365,1.817,5.050,0.000,25.443
19913,3.745,0.000,0.434,1.365,1.817,5.050,0.000,25.482
19957,3.745,0.000,0.434,1.365,1.817,5.050,0.000,25.458
20001,3.745,0.000,0.434,1.365,1.817,5.050,0.000,25.415
20045,3.745,0.000,0.434,1.365,1.817,5.050,0.000,25.430
20089,3.746,0.000,0.434,1.365,1.817,5.050,0.000,25.406
20133,3.746,0.000,0.434,1.365,1.817,5.050,0.000,25.418
20177,3.746,0.000,0.434,1.365,1.817,5.050,0.000,25.361
20221,3.746,0.000,0.434,1.365,1.817,5.050,0.000,25.364
20265,3.747,0.000,0.434,1.365,1.817,5.050,0.000,25.391
20309,3.747,0.000,0.434,1.365,1.817,5.050,0.000,25.307
20353,3.747,0.000,0.434,1.365,1.817,5.050,0.000,25.344
20397,3.747,0.000,0.434,1.365,1.817,5.050,0.000,25.344
20441,3.748,0.000,0.434,1.365,1.817,5.050,0.000,25.316
20485,3.748,0.000,0.434,1.365,1.817,5.050,0.000,25.316
20529,3.748,0.000,0.434,1.365,1.817,5.050,0.000,25.275
20573,3.748,0.000,0.434,1.365,1.817,5.050,0.000,25.277
20617,3.749,0.000,0.434,1.365,1.817,5.050,0.000,25.299
20661,3.749,0.000,0.434,1.365,1.817,5.050,0.000,25.270
20705,3.749,0.000,0.434,1.365,1.817,5.050,0.000,25.270
20749,3.750,0.000,0.434,1.365,1.817,5.050,0.000,25.274
20793,3.750,0.000,0.434,1.365,1.817,5.050,0.000,25.254
20837,3.750,0.000,0.434,1.365,1.817,5.050,0.000,25.250
20881,3.751,0.000,0.434,1.365,1.817,5.050,0.000,25.246
20925,3.751,0.000,0.434,1.365,1.817,5.050,0.000,25.269
20969,3.751,0.000,0.434,1.365,1.817,5.050,0.000,25.229
21013,3.752,0.000,0.434,1.365,1.817,5.050,0.000,25.212
21057,3.752,0.000,0.434,1.365,1.817,5.050,0.000,25.243
21101,3.752,0.000,0.434,1.365,1.817,5.050,0.000,25.208
21145,3.753,0.000,0.434,1.365,1.817,5.050,0.000,25.239
21189,3.753,0.000,0.434,1.365,1.817,5.050,0.000,25.193
21233,3.754,0.000,0.434,1.365,1.817,5.050,0.000,25.179
21277,3.754,0.000,0.434,1.365,1.817,5.050,0.000,25.136
21321,3.755,0.000,0.434,1.365,1.817,5.050,0.000,25.152
21365,3.755,0.000,0.434,1.365,1.817,5.050,0.000,25.172
21409,3.756,0.000,0.434,1.365,1.817,5.050,0.000,25.170
21453,3.757,0.000,0.434,1.365,1.817,5.050,0.000,25.185
21497,3.757,0.000,0.434,1.365,1.817,5.050,0.000,25.219
21541,3.758,0.000,0.434,1.365,1.817,5.050,0.000,25.187
21585,3.758,0.000,0.434,1.365,1.817,5.050,0.000,25.151
21629,3.759,0.000,0.434,1.365,1.817,5.050,0.000,25.122
21673,3.759,0.000,0.434,1.365,1.817,5.050,0.000,25.098
21717,3.760,0.000,0.434,1.365,1.817,5.050,0.000,25.131
21761,3.760,0.000,0.434,1.365,1.817,5.050,0.000,25.123
21805,3.761,0.000,0.434,1.365,1.817,5.050,0.000,25.150
21849,3.761,0.000,0.434,1.365,1.817,5.050,0.000,25.150
21893,3.761,0.000,0.434,1.365,1.817,5.050,0.000,25.117
21937,3.762,0.000,0.434,1.365,1.817,5.050,0.000,25.140
21981,3.762,0.000,0.434,1.365,1.817,5.050,0.000,25.105
22025,3.762,0.000,0.434,1.365,1.817,5.050,0.000,25.121
22069,3.763,0.000,0.434,1.365,1.817,5.050,0.000,25.160
22113,3.763,0.000,0.434,1.365,1.817,5.050,0.000,25.157
22157,3.763,0.000,0.434,1.365,1.817,5.050,0.000,25.107
22201,3.764,0.000,0.434,1.365,1.817,5.050,0.000,25.126
22245,3.764,0.000,0.434,1.365,1.817,5.050,0.000,25.101
22289,3.764,0.000,0.434,1.365,1.817,5.050,0.000,25.131
22333,3.764,0.000,0.434,1.365,1.817,5.050,0.000,25.145
22377,3.764,0.000,0.434,1.365,1.817,5.050,0.000,25.125
22421,3.765,0.000,0.434,1.365,1.817,5.050,0.000,25.130
22465,3.765,0.000,0.434,1.365,1.817,5.050,0.000,25.114
22508,3.586,-3.000,0.434,1.370,1.817,5.068,-0.003,25.113
22551,3.750,0.000,0.434,1.374,1.817,5.081,0.000,25.179
22593,3.766,0.000,0.440,1.374,1.841,5.081,0.000,25.200
22636,3.526,-3.350,0.440,1.405,1.841,5.193,-0.001,25.312
22680,3.502,-3.350,0.440,1.446,1.841,5.337,0.000,25.557
22724,3.484,-3.350,0.440,1.487,1.841,5.480,0.000,25.717
22768,3.469,-3.350,0.440,1.528,1.841,5.622,0.000,25.955
22812,3.454,-3.350,0.440,1.569,1.841,5.764,0.000,26.179
22856,3.440,-3.350,0.440,1.610,1.841,5.905,0.000,26.313
22900,3.426,-3.350,0.440,1.651,1.841,6.046,0.000,26.505
22944,3.412,-3.350,0.440,1.692,1.841,6.186,0.000,26.712
22987,3.611,0.000,0.440,1.709,1.841,6.243,0.001,26.762
23031,3.629,0.000,0.440,1.709,1.841,6.243,0.000,26.629
23075,3.637,0.000,0.440,1.709,1.841,6.243,0.000,26.397
23119,3.642,0.000,0.440,1.709,1.841,6.243,0.000,26.209
23163,3.646,0.000,0.440,1.709,1.841,6.243,0.000,26.108
23207,3.648,0.000,0.440,1.709,1.841,6.243,0.000,25.987
23251,3.649,0.000,0.440,1.709,1.841,6.243,0.000,25.836
23295,3.650,0.000,0.440,1.709,1.841,6.243,0.000,25.785
23339,3.651,0.000,0.440,1.709,1.841,6.243,0.000,25.755
23383,3.651,0.000,0.440,1.709,1.841,6.243,0.000,25.633
23427,3.652,0.000,0.440,1.709,1.841,6.243,0.000,25.594
23471,3.652,0.000,0.440,1.709,1.841,6.243,0.000,25.558
23515,3.652,0.000,0.440,1.709,1.841,6.243,0.000,25.507
23559,3.653,0.000,0.440,1.709,1.841,6.243,0.000,25.501
23603,3.653,0.000,0.440,1.709,1.841,6.243,0.000,25.402
23647,3.653,0.000,0.440,1.709,1.841,6.243,0.000,25.405
23691,3.654,0.000,0.440,1.709,1.841,6.243,0.000,25.379
23735,3.654,0.000,0.440,1.709,1.841,6.243,0.000,25.320
23779,3.654,0.000,0.440,1.709,1.841,6.243,0.000,25.302
23823,3.654,0.000,0.440,1.709,1.841,6.243,0.000,25.274
23867,3.655,0.000,0.440,1.709,1.841,6.243,0.000,25.278
23911,3.655,0.000,0.440,1.709,1.841,6.243,0.000,25.281
23955,3.655,0.000,0.440,1.709,1.841,6.243,0.000,25.238
23999,3.655,0.000,0.440,1.709,1.841,6.243,0.000,25.224
24043,3.655,0.000,0.440,1.709,1.841,6.243,0.000,25.235
24087,3.656,0.000,0.440,1.709,1.841,6.243,0.000,25.205
24131,3.656,0.000,0.440,1.709,1.841,6.243,0.000,25.209
24175,3.656,0.000,0.440,1.709,1.841,6.243,0.000,25.203
24219,3.656,0.000,0.440,1.709,1.841,6.243,0.000,25.201
24263,3.656,0.000,0.440,1.709,1.841,6.243,0.000,25.187
24307,3.656,0.000,0.440,1.709,1.841,6.243,0.000,25.200
24351,3.656,0.000,0.440,1.709,1.841,6.243,0.000,25.191
24395,3.656,0.000,0.440,1.709,1.841,6.243,0.000,25.158
24439,3.657,0.000,0.440,1.709,1.841,6.243,0.000,25.182
24483,3.657,0.000,0.440,1.709,1.841,6.243,0.000,25.195
24527,3.657,0.000,0.440,1.709,1.841,6.243,0.000,25.182
24571,3.657,0.000,0.440,1.709,1.841,6.243,0.000,25.210
24615,3.657,0.000,0.440,1.709,1.841,6.243,0.000,25.197
24659,3.657,0.000,0.440,1.709,1.841,6.243,0.000,25.169
24703,3.657,0.000,0.440,1.709,1.841,6.243,0.000,25.197
24747,3.657,0.000,0.440,1.709,1.841,6.243,0.000,25.166
24791,3.657,0.000,0.440,1.709,1.841,6.243,0.000,25.128
24835,3.657,0.000,0.440,1.709,1.841,6.243,0.000,25.153
24879,3.657,0.000,0.440,1.709,1.841,6.243,0.000,25.176
24923,3.658,0.000,0.440,1.709,1.841,6.243,0.000,25.148
24967,3.658,0.000,0.440,1.709,1.841,6.243,0.000,25.137
25011,3.658,0.000,0.440,1.709,1.841,6.243,0.000,25.138
25055,3.658,0.000,0.440,1.709,1.841,6.243,0.000,25.148
25099,3.658,0.000,0.440,1.709,1.841,6.243,0.000,25.128
25143,3.658,0.000,0.440,1.709,1.841,6.243,0.000,25.141
25187,3.658,0.000,0.440,1.709,1.841,6.243,0.000,25.131
25231,3.658,0.000,0.440,1.709,1.841,6.243,0.000,25.158
25275,3.658,0.000,0.440,1.709,1.841,6.243,0.000,25.113
25319,3.658,0.000,0.440,1.709,1.841,6.243,0.000,25.122
25363,3.658,0.000,0.440,1.709,1.841,6.243,0.000,25.153
25407,3.658,0.000,0.440,1.709,1.841,6.243,0.000,25.120
25451,3.658,0.000,0.440,1.709,1.841,6.243,0.000,25.160
25495,3.658,0.000,0.440,1.709,1.841,6.243,0.000,25.170
25539,3.658,0.000,0.440,1.709,1.841,6.243,0.000,25.162
25583,3.658,0.000,0.440,1.709,1.841,6.243,0.000,25.185
25627,3.658,0.000,0.440,1.709,1.841,6.243,0.000,25.128
25671,3.658,0.000,0.440,1.709,1.841,6.243,0.000,25.156
25715,3.658,0.000,0.440,1.709,1.841,6.243,0.000,25.176
25759,3.658,0.000,0.440,1.709,1.841,6.243,0.000,25.149
25803,3.659,0.000,0.440,1.709,1.841,6.243,0.000,25.121
25847,3.659,0.000,0.440,1.709,1.841,6.243,0.000,25.106
25891,3.659,0.000,0.440,1.709,1.841,6.243,0.000,25.082
25935,3.659,0.000,0.440,1.709,1.841,6.243,0.000,25.107
25979,3.659,0.000,0.440,1.709,1.841,6.243,0.000,25.129
26023,3.659,0.000,0.440,1.709,1.841,6.243,0.000,25.126
26067,3.659,0.000,0.440,1.709,1.841,6.243,0.000,25.085
26111,3.659,0.000,0.440,1.709,1.841,6.243,0.000,25.115
26155,3.659,0.000,0.440,1.709,1.841,6.243,0.000,25.128
26199,3.659,0.000,0.440,1.709,1.841,6.243,0.000,25.114
26243,3.659,0.000,0.440,1.709,1.841,6.243,0.000,25.117
26287,3.659,0.000,0.440,1.709,1.841,6.243,0.000,25.157
26331,3.659,0.000,0.440,1.709,1.841,6.243,0.000,25.131
26375,3.659,0.000,0.440,1.709,1.841,6.243,0.000,25.139
26419,3.659,0.000,0.440,1.709,1.841,6.243,0.000,25.123
26463,3.659,0.000,0.440,1.709,1.841,6.243,0.000,25.119
26507,3.659,0.000,0.440,1.709,1.841,6.243,0.000,25.157
26551,3.659,0.000,0.440,1.709,1.841,6.243,0.000,25.131
26594,3.648,0.000,0.440,1.717,1.841,6.272,0.000,25.137
26636,3.662,0.000,0.446,1.717,1.865,6.272,0.000,25.206
26679,3.453,-3.350,0.446,1.732,1.865,6.324,-0.001,25.198
26723,3.415,-3.350,0.446,1.773,1.865,6.464,-0.001,25.447
26767,3.394,-3.350,0.446,1.814,1.865,6.604,0.000,25.759
26811,3.377,-3.350,0.446,1.855,1.865,6.742,0.000,26.048
26855,3.363,-3.350,0.446,1.896,1.865,6.880,0.000,26.352
26899,3.351,-3.350,0.446,1.937,1.865,7.018,0.000,26.576
26943,3.339,-3.350,0.446,1.978,1.865,7.155,0.000,26.814
26987,3.328,-3.350,0.446,2.019,1.865,7.291,0.000,27.107
27030,3.507,0.000,0.446,2.052,1.865,7.402,0.002,27.198
27074,3.546,0.000,0.446,2.052,1.865,7.402,0.000,27.017
27118,3.562,0.000,0.446,2.052,1.865,7.402,0.000,26.749
27162,3.570,0.000,0.446,2.052,1.865,7.402,0.000,26.529
27206,3.575,0.000,0.446,2.052,1.865,7.402,0.000,26.351
27250,3.578,0.000,0.446,2.052,1.865,7.402,0.000,26.184
27294,3.581,0.000,0.446,2.052,1.865,7.402,0.000,26.036
27338,3.583,0.000,0.446,2.052,1.865,7.402,0.000,25.871
27382,3.585,0.000,0.446,2.052,1.865,7.402,0.000,25.789
27426,3.586,0.000,0.446,2.052,1.865,7.402,0.000,25.710
27470,3.587,0.000,0.446,2.052,1.865,7.402,0.000,25.622
27514,3.588,0.000,0.446,2.052,1.865,7.402,0.000,25.574
27558,3.589,0.000,0.446,2.052,1.865,7.402,0.000,25.520
27602,3.590,0.000,0.446,2.052,1.865,7.402,0.000,25.432
27646,3.590,0.000,0.446,2.052,1.865,7.402,0.000,25.440
27690,3.591,0.000,0.446,2.052,1.865,7.402,0.000,25.384
27734,3.591,0.000,0.446,2.052,1.865,7.402,0.000,25.373
27778,3.591,0.000,0.446,2.052,1.865,7.402,0.000,25.346
27822,3.592,0.000,0.446,2.052,1.865,7.402,0.000,25.340
27866,3.592,0.000,0.446,2.052,1.865,7.402,0.000,25.323
27910,3.592,0.000,0.446,2.052,1.865,7.402,0.000,25.236
27954,3.592,0.000,0.446,2.052,1.865,7.402,0.000,25.269
27998,3.592,0.000,0.446,2.052,1.865,7.402,0.000,25.240
28042,3.593,0.000,0.446,2.052,1.865,7.402,0.000,25.206
28086,3.593,0.000,0.446,2.052,1.865,7.402,0.000,25.234
28130,3.593,0.000,0.446,2.052,1.865,7.402,0.000,25.234
28174,3.593,0.000,0.446,2.052,1.865,7.402,0.000,25.188
28218,3.593,0.000,0.446,2.052,1.865,7.402,0.000,25.175
28262,3.593,0.000,0.446,2.052,1.865,7.402,0.000,25.159
28306,3.593,0.000,0.446,2.052,1.865,7.402,0.000,25.172
28350,3.593,0.000,0.446,2.052,1.865,7.402,0.000,25.147
28394,3.593,0.000,0.446,2.052,1.865,7.402,0.000,25.171
28438,3.594,0.000,0.446,2.052,1.865,7.402,0.000,25.167
28482,3.594,0.000,0.446,2.052,1.865,7.402,0.000,25.175
28526,3.594,0.000,0.446,2.052,1.865,7.402,0.000,25.142
28570,3.594,0.000,0.446,2.052,1.865,7.402,0.000,25.163
28614,3.594,0.000,0.446,2.052,1.865,7.402,0.000,25.136
28658,3.594,0.000,0.446,2.052,1.865,7.402,0.000,25.153
28702,3.594,0.000,0.446,2.052,1.865,7.402,0.000,25.108
28746,3.594,0.000,0.446,2.052,1.865,7.402,0.000,25.138
28790,3.594,0.000,0.446,2.052,1.865,7.402,0.000,25.099
28834,3.594,0.000,0.446,2.052,1.865,7.402,0.000,25.121
28878,3.594,0.000,0.446,2.052,1.865,7.402,0.000,25.081
28922,3.594,0.000,0.446,2.052,1.865,7.402,0.000,25.103
28966,3.594,0.000,0.446,2.052,1.865,7.402,0.000,25.123
29010,3.594,0.000,0.446,2.052,1.865,7.402,0.000,25.137
29054,3.594,0.000,0.446,2.052,1.865,7.402,0.000,25.109
29098,3.595,0.000,0.446,2.052,1.865,7.402,0.000,25.072
29142,3.594,0.000,0.446,2.052,1.865,7.402,0.000,25.134
29186,3.595,0.000,0.446,2.052,1.865,7.402,0.000,25.129
29230,3.595,0.000,0.446,2.052,1.865,7.402,0.000,25.145
29274,3.595,0.000,0.446,2.052,1.865,7.402,0.000,25.125
29318,3.595,0.000,0.446,2.052,1.865,7.402,0.000,25.122
29362,3.595,0.000,0.446,2.052,1.865,7.402,0.000,25.159
29406,3.595,0.000,0.446,2.052,1.865,7.402,0.000,25.136
29450,3.595,0.000,0.446,2.052,1.865,7.402,0.000,25.151
29494,3.595,0.000,0.446,2.052,1.865,7.402,0.000,25.128
29538,3.595,0.000,0.446,2.052,1.865,7.402,0.000,25.127
29582,3.595,0.000,0.446,2.052,1.865,7.402,0.000,25.145
29626,3.595,0.000,0.446,2.052,1.865,7.402,0.000,25.132
29670,3.595,0.000,0.446,2.052,1.865,7.402,0.000,25.132
29714,3.595,0.000,0.446,2.052,1.865,7.402,0.000,25.123
29758,3.595,0.000,0.446,2.052,1.865,7.402,0.000,25.142
29802,3.595,0.000,0.446,2.052,1.865,7.402,0.000,25.091
29846,3.595,0.000,0.446,2.052,1.865,7.402,0.000,25.143
29890,3.595,0.000,0.446,2.052,1.865,7.402,0.000,25.123
29934,3.595,0.000,0.446,2.052,1.865,7.402,0.000,25.109
29978,3.595,0.000,0.446,2.052,1.865,7.402,0.000,25.110
30022,3.595,0.000,0.446,2.052,1.865,7.402,0.000,25.120
30066,3.595,0.000,0.446,2.052,1.865,7.402,0.000,25.102
30110,3.595,0.000,0.446,2.052,1.865,7.402,0.000,25.116
30154,3.595,0.000,0.446,2.052,1.865,7.402,0.000,25.145
30198,3.595,0.000,0.446,2.052,1.865,7.402,0.000,25.129
30242,3.595,0.000,0.446,2.052,1.865,7.402,0.000,25.076
30286,3.595,0.000,0.446,2.052,1.865,7.402,0.000,25.140
30330,3.595,0.000,0.446,2.052,1.865,7.402,0.000,25.101
30374,3.595,0.000,0.446,2.052,1.865,7.402,0.000,25.130
30418,3.595,0.000,0.446,2.052,1.865,7.402,0.000,25.115
30462,3.595,0.000,0.446,2.052,1.865,7.402,0.000,25.117
30506,3.595,0.000,0.446,2.052,1.865,7.402,0.000,25.120
30550,3.596,0.000,0.446,2.052,1.865,7.402,0.000,25.105
30594,3.595,0.000,0.446,2.052,1.865,7.402,0.000,25.124
30636,3.575,0.000,0.446,2.061,1.865,7.431,0.001,25.162
30679,3.714,2.250,0.450,2.061,1.879,7.431,0.002,25.140
30722,3.596,0.000,0.453,2.061,1.888,7.431,0.000,25.193
30765,3.356,-3.350,0.453,2.100,1.888,7.563,-0.001,25.470
30809,3.325,-3.350,0.453,2.141,1.888,7.700,-0.001,25.778
30853,3.302,-3.350,0.453,2.182,1.888,7.836,-0.001,26.151
30897,3.285,-3.350,0.453,2.223,1.888,7.971,0.000,26.511
30941,3.271,-3.350,0.453,2.264,1.888,8.105,0.000,26.834
30985,3.258,-3.350,0.453,2.304,1.888,8.239,0.000,27.110
31029,3.245,-3.350,0.453,2.345,1.888,8.372,0.000,27.268
31073,3.232,-3.350,0.453,2.386,1.888,8.504,0.000,27.493
31116,3.455,0.000,0.453,2.396,1.888,8.534,0.001,27.520
31160,3.471,0.000,0.453,2.396,1.888,8.534,0.000,27.256
31204,3.482,0.000,0.453,2.396,1.888,8.534,0.000,26.997
31248,3.493,0.000,0.453,2.396,1.888,8.534,0.000,26.747
31292,3.501,0.000,0.453,2.396,1.888,8.534,0.000,26.508
31336,3.507,0.000,0.453,2.396,1.888,8.534,0.000,26.286
31380,3.511,0.000,0.453,2.396,1.888,8.534,0.000,26.177
31424,3.515,0.000,0.453,2.396,1.888,8.534,0.000,26.018
31468,3.517,0.000,0.453,2.396,1.888,8.534,0.000,25.879
31512,3.520,0.000,0.453,2.396,1.888,8.534,0.000,25.796
31556,3.521,0.000,0.453,2.396,1.888,8.534,0.000,25.676
31600,3.522,0.000,0.453,2.396,1.888,8.534,0.000,25.610
31644,3.524,0.000,0.453,2.396,1.888,8.534,0.000,25.523
31688,3.525,0.000,0.453,2.396,1.888,8.534,0.000,25.489
31732,3.526,0.000,0.453,2.396,1.888,8.534,0.000,25.455
31776,3.527,0.000,0.453,2.396,1.888,8.534,0.000,25.414
31820,3.528,0.000,0.453,2.396,1.888,8.534,0.000,25.384
31864,3.529,0.000,0.453,2.396,1.888,8.534,0.000,25.321
31908,3.530,0.000,0.453,2.396,1.888,8.534,0.000,25.363
31952,3.530,0.000,0.453,2.396,1.888,8.534,0.000,25.318
31996,3.531,0.000,0.453,2.396,1.888,8.534,0.000,25.285
32040,3.531,0.000,0.453,2.396,1.888,8.534,0.000,25.260
32084,3.532,0.000,0.453,2.396,1.888,8.534,0.000,25.251
32128,3.533,0.000,0.453,2.396,1.888,8.534,0.000,25.276
32172,3.533,0.000,0.453,2.396,1.888,8.534,0.000,25.263
32216,3.533,0.000,0.453,2.396,1.888,8.534,0.000,25.217
32260,3.534,0.000,0.453,2.396,1.888,8.534,0.000,25.207
32304,3.534,0.000,0.453,2.396,1.888,8.534,0.000,25.214
32348,3.534,0.000,0.453,2.396,1.888,8.534,0.000,25.171
32392,3.535,0.000,0.453,2.396,1.888,8.534,0.000,25.176
32436,3.535,0.000,0.453,2.396,1.888,8.534,0.000,25.139
32480,3.535,0.000,0.453,2.396,1.888,8.534,0.000,25.174
32524,3.535,0.000,0.453,2.396,1.888,8.534,0.000,25.168
32568,3.536,0.000,0.453,2.396,1.888,8.534,0.000,25.141
32612,3.536,0.000,0.453,2.396,1.888,8.534,0.000,25.195
32656,3.536,0.000,0.453,2.396,1.888,8.534,0.000,25.150
32700,3.536,0.000,0.453,2.396,1.888,8.534,0.000,25.126
32744,3.536,0.000,0.453,2.396,1.888,8.534,0.000,25.103
32788,3.537,0.000,0.453,2.396,1.888,8.534,0.000,25.108
32832,3.537,0.000,0.453,2.396,1.888,8.534,0.000,25.116
32876,3.537,0.000,0.453,2.396,1.888,8.534,0.000,25.122
32920,3.537,0.000,0.453,2.396,1.888,8.534,0.000,25.106
32964,3.537,0.000,0.453,2.396,1.888,8.534,0.000,25.141
33008,3.537,0.000,0.453,2.396,1.888,8.534,0.000,25.107
33052,3.537,0.000,0.453,2.396,1.888,8.534,0.000,25.132
33096,3.538,0.000,0.453,2.396,1.888,8.534,0.000,25.131
33140,3.538,0.000,0.453,2.396,1.888,8.534,0.000,25.155
33184,3.538,0.000,0.453,2.396,1.888,8.534,0.000,25.091
33228,3.538,0.000,0.453,2.396,1.888,8.534,0.000,25.102
33272,3.538,0.000,0.453,2.396,1.888,8.534,0.000,25.081
33316,3.538,0.000,0.453,2.396,1.888,8.534,0.000,25.099
33360,3.538,0.000,0.453,2.396,1.888,8.534,0.000,25.104
33404,3.538,0.000,0.453,2.396,1.888,8.534,0.000,25.092
33448,3.538,0.000,0.453,2.396,1.888,8.534,0.000,25.068
33492,3.538,0.000,0.453,2.396,1.888,8.534,0.000,25.104
33536,3.538,0.000,0.453,2.396,1.888,8.534,0.000,25.085
33580,3.538,0.000,0.453,2.396,1.888,8.534,0.000,25.091
33624,3.539,0.000,0.453,2.396,1.888,8.534,0.000,25.119
33668,3.539,0.000,0.453,2.396,1.888,8.534,0.000,25.091
33712,3.539,0.000,0.453,2.396,1.888,8.534,0.000,25.055
33756,3.539,0.000,0.453,2.396,1.888,8.534,0.000,25.078
33800,3.539,0.000,0.453,2.396,1.888,8.534,0.000,25.059
33844,3.539,0.000,0.453,2.396,1.888,8.534,0.000,25.069
33888,3.539,0.000,0.453,2.396,1.888,8.534,0.000,25.053
33932,3.539,0.000,0.453,2.396,1.888,8.534,0.000,25.034
33976,3.539,0.000,0.453,2.396,1.888,8.534,0.000,25.058
34020,3.539,0.000,0.453,2.396,1.888,8.534,0.000,25.089
34064,3.539,0.000,0.453,2.396,1.888,8.534,0.000,25.047
34108,3.539,0.000,0.453,2.396,1.888,8.534,0.000,25.039
34152,3.539,0.000,0.453,2.396,1.888,8.534,0.000,25.065
34196,3.539,0.000,0.453,2.396,1.888,8.534,0.000,25.063
34240,3.539,0.000,0.453,2.396,1.888,8.534,0.000,25.082
34284,3.539,0.000,0.453,2.396,1.888,8.534,0.000,25.058
34328,3.539,0.000,0.453,2.396,1.888,8.534,0.000,25.067
34372,3.539,0.000,0.453,2.396,1.888,8.534,0.000,25.083
34416,3.539,0.000,0.453,2.396,1.888,8.534,0.000,25.071
34460,3.540,0.000,0.453,2.396,1.888,8.534,0.000,25.082
34504,3.540,0.000,0.453,2.396,1.888,8.534,0.000,25.103
34548,3.540,0.000,0.453,2.396,1.888,8.534,0.000,25.028
34592,3.540,0.000,0.453,2.396,1.888,8.534,0.000,25.027
34636,3.540,0.000,0.453,2.396,1.888,8.534,0.000,25.067
34680,3.540,0.000,0.453,2.396,1.888,8.534,0.000,25.081
34722,3.529,0.000,0.453,2.404,1.888,8.563,0.000,25.116
34764,3.541,0.000,0.459,2.404,1.911,8.563,0.000,25.212
34807,3.306,-3.350,0.459,2.426,1.911,8.637,-0.001,25.257
34851,3.260,-3.350,0.459,2.467,1.911,8.771,-0.001,25.665
34895,3.226,-3.350,0.459,2.508,1.911,8.904,-0.001,26.080
34939,3.201,-3.350,0.459,2.549,1.911,9.036,0.000,26.481
34983,3.179,-3.350,0.459,2.590,1.911,9.166,-0.001,26.889
35027,3.155,-3.350,0.459,2.631,1.911,9.296,-0.001,27.219
35071,3.129,-3.350,0.459,2.672,1.911,9.425,-0.001,27.556
35115,3.101,-3.350,0.459,2.713,1.911,9.552,-0.001,27.849
35158,3.346,0.000,0.459,2.739,1.911,9.633,0.002,28.136
35202,3.380,0.000,0.459,2.739,1.911,9.633,0.000,27.819
35246,3.390,0.000,0.459,2.739,1.911,9.633,0.000,27.496
35290,3.394,0.000,0.459,2.739,1.911,9.633,0.000,27.169
35334,3.398,0.000,0.459,2.739,1.911,9.633,0.000,26.974
35378,3.402,0.000,0.459,2.739,1.911,9.633,0.000,26.781
35422,3.406,0.000,0.459,2.739,1.911,9.633,0.000,26.581
35466,3.410,0.000,0.459,2.739,1.911,9.633,0.000,26.427
35510,3.414,0.000,0.459,2.739,1.911,9.633,0.000,26.267
35554,3.418,0.000,0.459,2.739,1.911,9.633,0.000,26.110
35598,3.420,0.000,0.459,2.739,1.911,9.633,0.000,26.042
35642,3.423,0.000,0.459,2.739,1.911,9.633,0.000,25.880
35686,3.425,0.000,0.459,2.739,1.911,9.633,0.000,25.812
35730,3.427,0.000,0.459,2.739,1.911,9.633,0.000,25.743
35774,3.428,0.000,0.459,2.739,1.911,9.633,0.000,25.662
35818,3.429,0.000,0.459,2.739,1.911,9.633,0.000,25.568
35862,3.431,0.000,0.459,2.739,1.911,9.633,0.000,25.514
35906,3.432,0.000,0.459,2.739,1.911,9.633,0.000,25.498
35950,3.433,0.000,0.459,2.739,1.911,9.633,0.000,25.470
35994,3.434,0.000,0.459,2.739,1.911,9.633,0.000,25.419
36038,3.434,0.000,0.459,2.739,1.911,9.633,0.000,25.385
36082,3.435,0.000,0.459,2.739,1.911,9.633,0.000,25.352
36126,3.436,0.000,0.459,2.739,1.911,9.633,0.000,25.322
36170,3.436,0.000,0.459,2.739,1.911,9.633,0.000,25.257
36214,3.437,0.000,0.459,2.739,1.911,9.633,0.000,25.299
36258,3.437,0.000,0.459,2.739,1.911,9.633,0.000,25.256
36302,3.438,0.000,0.459,2.739,1.911,9.633,0.000,25.246
36346,3.438,0.000,0.459,2.739,1.911,9.633,0.000,25.250
36390,3.438,0.000,0.459,2.739,1.911,9.633,0.000,25.228
36434,3.439,0.000,0.459,2.739,1.911,9.633,0.000,25.157
36478,3.439,0.000,0.459,2.739,1.911,9.633,0.000,25.227
36522,3.439,0.000,0.459,2.739,1.911,9.633,0.000,25.206
36566,3.439,0.000,0.459,2.739,1.911,9.633,0.000,25.171
36610,3.440,0.000,0.459,2.739,1.911,9.633,0.000,25.142
36654,3.440,0.000,0.459,2.739,1.911,9.633,0.000,25.154
36698,3.440,0.000,0.459,2.739,1.911,9.633,0.000,25.114
36742,3.440,0.000,0.459,2.739,1.911,9.633,0.000,25.153
36786,3.440,0.000,0.459,2.739,1.911,9.633,0.000,25.159
36830,3.441,0.000,0.459,2.739,1.911,9.633,0.000,25.146
36874,3.441,0.000,0.459,2.739,1.911,9.633,0.000,25.165
36918,3.441,0.000,0.459,2.739,1.911,9.633,0.000,25.167
36962,3.441,0.000,0.459,2.739,1.911,9.633,0.000,25.118
37006,3.441,0.000,0.459,2.739,1.911,9.633,0.000,25.132
37050,3.441,0.000,0.459,2.739,1.911,9.633,0.000,25.132
37094,3.441,0.000,0.459,2.739,1.911,9.633,0.000,25.110
37138,3.441,0.000,0.459,2.739,1.911,9.633,0.000,25.122
37182,3.442,0.000,0.459,2.739,1.911,9.633,0.000,25.126
37226,3.442,0.000,0.459,2.739,1.911,9.633,0.000,25.106
37270,3.442,0.000,0.459,2.739,1.911,9.633,0.000,25.153
37314,3.442,0.000,0.459,2.739,1.911,9.633,0.000,25.115
37358,3.442,0.000,0.459,2.739,1.911,9.633,0.000,25.095
37402,3.442,0.000,0.459,2.739,1.911,9.633,0.000,25.156
37446,3.442,0.000,0.459,2.739,1.911,9.633,0.000,25.142
37490,3.442,0.000,0.459,2.739,1.911,9.633,0.000,25.122
37534,3.442,0.000,0.459,2.739,1.911,9.633,0.000,25.146
37578,3.442,0.000,0.459,2.739,1.911,9.633,0.000,25.154
37622,3.442,0.000,0.459,2.739,1.911,9.633,0.000,25.164
37666,3.442,0.000,0.459,2.739,1.911,9.633,0.000,25.140
37710,3.442,0.000,0.459,2.739,1.911,9.633,0.000,25.153
37754,3.443,0.000,0.459,2.739,1.911,9.633,0.000,25.175
37798,3.443,0.000,0.459,2.739,1.911,9.633,0.000,25.189
37842,3.443,0.000,0.459,2.739,1.911,9.633,0.000,25.151
37886,3.443,0.000,0.459,2.739,1.911,9.633,0.000,25.168
37930,3.443,0.000,0.459,2.739,1.911,9.633,0.000,25.211
37974,3.443,0.000,0.459,2.739,1.911,9.633,0.000,25.144
38018,3.443,0.000,0.459,2.739,1.911,9.633,0.000,25.172
38062,3.443,0.000,0.459,2.739,1.911,9.633,0.000,25.133
38106,3.443,0.000,0.459,2.739,1.911,9.633,0.000,25.204
38150,3.443,0.000,0.459,2.739,1.911,9.633,0.000,25.209
38194,3.443,0.000,0.459,2.739,1.911,9.633,0.000,25.142
38238,3.443,0.000,0.459,2.739,1.911,9.633,0.000,25.181
38282,3.443,0.000,0.459,2.739,1.911,9.633,0.000,25.202
38326,3.443,0.000,0.459,2.739,1.911,9.633,0.000,25.163
38370,3.443,0.000,0.459,2.739,1.911,9.633,0.000,25.164
38414,3.443,0.000,0.459,2.739,1.911,9.633,0.000,25.134
38458,3.443,0.000,0.459,2.739,1.911,9.633,0.000,25.197
38502,3.443,0.000,0.459,2.739,1.911,9.633,0.000,25.181
38546,3.444,0.000,0.459,2.739,1.911,9.633,0.000,25.178
38590,3.444,0.000,0.459,2.739,1.911,9.633,0.000,25.193
38634,3.444,0.000,0.459,2.739,1.911,9.633,0.000,25.159
38678,3.444,0.000,0.459,2.739,1.911,9.633,0.000,25.154
38722,3.444,0.000,0.459,2.739,1.911,9.633,0.000,25.176
38765,3.424,0.000,0.459,2.747,1.911,9.660,0.001,25.247
38807,3.453,0.000,0.465,2.747,1.933,9.660,-0.001,25.274
38850,3.188,-3.350,0.465,2.753,1.933,9.678,-0.004,25.311
38894,3.087,-3.350,0.465,2.794,1.933,9.806,-0.002,25.753
38938,3.027,-3.350,0.465,2.835,1.933,9.931,-0.001,26.403
38982,2.970,-3.350,0.465,2.876,1.933,10.054,-0.001,27.045
39026,2.905,-3.350,0.465,2.917,1.933,10.174,-0.001,27.638
39070,2.829,-3.350,0.465,2.958,1.933,10.292,-0.002,28.374
39114,2.739,-3.350,0.465,2.999,1.933,10.406,-0.002,29.082
39158,2.628,-3.350,0.465,3.040,1.933,10.516,-0.003,29.974
39200,2.491,-3.350,0.465,3.079,1.933,10.616,-0.004,30.830