File: data/T25/HPPC/4.csv
time_s,voltage_v,current_a,chargecapacity_ah,dischargecapacity_ah,charge_energy_wh,discharge_energy_wh,voltagedot_v_per_s,temp_degc
1,4.033,0.000,0.000,0.000,0.000,0.000,0.000,25.100
49,4.034,0.000,0.000,0.000,0.000,0.000,0.000,25.105
96,4.187,1.625,0.016,0.000,0.068,0.000,0.000,25.211
143,4.200,1.616,0.037,0.000,0.157,0.000,0.000,25.321
191,4.200,1.503,0.058,0.000,0.244,0.000,0.000,25.486
239,4.200,1.416,0.078,0.000,0.326,0.000,0.000,25.542
287,4.200,1.341,0.096,0.000,0.403,0.000,0.000,25.671
335,4.200,1.272,0.113,0.000,0.476,0.000,0.000,25.744
383,4.200,1.209,0.130,0.000,0.545,0.000,0.000,25.759
431,4.200,1.151,0.146,0.000,0.611,0.000,0.000,25.819
479,4.200,1.096,0.161,0.000,0.674,0.000,0.000,25.858
527,4.200,1.043,0.175,0.000,0.734,0.000,0.000,25.859
575,4.200,0.994,0.189,0.000,0.791,0.000,0.000,25.904
623,4.200,0.946,0.201,0.000,0.846,0.000,0.000,25.886
671,4.200,0.899,0.214,0.000,0.897,0.000,0.000,25.837
719,4.200,0.854,0.225,0.000,0.946,0.000,0.000,25.883
767,4.200,0.811,0.237,0.000,0.993,0.000,0.000,25.834
815,4.200,0.770,0.247,0.000,1.037,0.000,0.000,25.823
863,4.200,0.729,0.257,0.000,1.079,0.000,0.000,25.827
911,4.200,0.690,0.266,0.000,1.119,0.000,0.000,25.778
959,4.200,0.653,0.275,0.000,1.156,0.000,0.000,25.779
1007,4.200,0.616,0.284,0.000,1.192,0.000,0.000,25.735
1055,4.200,0.582,0.292,0.000,1.225,0.000,0.000,25.702
1103,4.200,0.549,0.299,0.000,1.257,0.000,0.000,25.681
1151,4.200,0.518,0.307,0.000,1.287,0.000,0.000,25.660
1199,4.200,0.488,0.313,0.000,1.315,0.000,0.000,25.625
1247,4.200,0.459,0.320,0.000,1.342,0.000,0.000,25.604
1295,4.200,0.433,0.325,0.000,1.366,0.000,0.000,25.554
1343,4.200,0.408,0.331,0.000,1.390,0.000,0.000,25.561
1391,4.200,0.383,0.336,0.000,1.412,0.000,0.000,25.584
1439,4.200,0.360,0.341,0.000,1.433,0.000,0.000,25.469
1487,4.200,0.339,0.346,0.000,1.452,0.000,0.000,25.490
1535,4.200,0.319,0.350,0.000,1.471,0.000,0.000,25.459
1583,4.200,0.301,0.354,0.000,1.488,0.000,0.000,25.435
1631,4.200,0.283,0.358,0.000,1.505,0.000,0.000,25.381
1679,4.200,0.266,0.362,0.000,1.520,0.000,0.000,25.421
1727,4.200,0.251,0.365,0.000,1.534,0.000,0.000,25.395
1775,4.200,0.237,0.369,0.000,1.548,0.000,0.000,25.330
1823,4.200,0.223,0.372,0.000,1.561,0.000,0.000,25.347
1871,4.200,0.210,0.375,0.000,1.573,0.000,0.000,25.277
1919,4.200,0.198,0.377,0.000,1.585,0.000,0.000,25.349
1967,4.200,0.188,0.380,0.000,1.595,0.000,0.000,25.326
2015,4.200,0.177,0.382,0.000,1.606,0.000,0.000,25.227
2063,4.200,0.167,0.385,0.000,1.615,0.000,0.000,25.312
2111,4.200,0.158,0.387,0.000,1.624,0.000,0.000,25.262
2159,4.200,0.150,0.389,0.000,1.633,0.000,0.000,25.237
2207,4.200,0.142,0.391,0.000,1.641,0.000,0.000,25.219
2255,4.200,0.134,0.393,0.000,1.649,0.000,0.000,25.209
2303,4.200,0.127,0.394,0.000,1.656,0.000,0.000,25.180
2351,4.200,0.121,0.396,0.000,1.663,0.000,0.000,25.222
2399,4.200,0.114,0.398,0.000,1.670,0.000,0.000,25.192
2447,4.200,0.109,0.399,0.000,1.676,0.000,0.000,25.193
2495,4.200,0.103,0.401,0.000,1.682,0.000,0.000,25.177
2543,4.200,0.098,0.402,0.000,1.688,0.000,0.000,25.167
2591,4.200,0.093,0.403,0.000,1.693,0.000,0.000,25.158
2639,4.200,0.088,0.404,0.000,1.698,0.000,0.000,25.140
2687,4.200,0.085,0.406,0.000,1.703,0.000,0.000,25.151
2735,4.200,0.080,0.407,0.000,1.707,0.000,0.000,25.130
2783,4.200,0.076,0.408,0.000,1.712,0.000,0.000,25.118
2831,4.200,0.073,0.409,0.000,1.716,0.000,0.000,25.153
2879,4.200,0.070,0.410,0.000,1.720,0.000,0.000,25.124
2927,4.200,0.067,0.411,0.000,1.724,0.000,0.000,25.098
2975,4.193,0.000,0.411,0.000,1.725,0.000,0.000,25.155
3023,4.192,0.000,0.411,0.000,1.725,0.000,0.000,25.121
3071,4.191,0.000,0.411,0.000,1.725,0.000,0.000,25.077
3119,4.190,0.000,0.411,0.000,1.725,0.000,0.000,25.128
3167,4.190,0.000,0.411,0.000,1.725,0.000,0.000,25.091
3215,4.189,0.000,0.411,0.000,1.725,0.000,0.000,25.081
3263,4.189,0.000,0.411,0.000,1.725,0.000,0.000,25.099
3311,4.189,0.000,0.411,0.000,1.725,0.000,0.000,25.084
3359,4.188,0.000,0.411,0.000,1.725,0.000,0.000,25.098
3407,4.188,0.000,0.411,0.000,1.725,0.000,0.000,25.066
3455,4.188,0.000,0.411,0.000,1.725,0.000,0.000,25.045
3503,4.188,0.000,0.411,0.000,1.725,0.000,0.000,25.049
3551,4.187,0.000,0.411,0.000,1.725,0.000,0.000,25.107
3599,4.187,0.000,0.411,0.000,1.725,0.000,0.000,25.064
3647,4.187,0.000,0.411,0.000,1.725,0.000,0.000,25.080
3695,4.187,0.000,0.411,0.000,1.725,0.000,0.000,25.055
3743,4.187,0.000,0.411,0.000,1.725,0.000,0.000,25.070
3791,4.187,0.000,0.411,0.000,1.725,0.000,0.000,25.026
3839,4.186,0.000,0.411,0.000,1.725,0.000,0.000,25.029
3887,4.186,0.000,0.411,0.000,1.725,0.000,0.000,25.015
3935,4.186,0.000,0.411,0.000,1.725,0.000,0.000,25.065
3983,4.186,0.000,0.411,0.000,1.725,0.000,0.000,25.036
4031,4.186,0.000,0.411,0.000,1.725,0.000,0.000,25.067
4079,4.186,0.000,0.411,0.000,1.725,0.000,0.000,25.063
4127,4.186,0.000,0.411,0.000,1.725,0.000,0.000,25.033
4175,4.185,0.000,0.411,0.000,1.725,0.000,0.000,25.051
4223,4.185,0.000,0.411,0.000,1.725,0.000,0.000,25.052
4271,4.185,0.000,0.411,0.000,1.725,0.000,0.000,25.018
4319,4.185,0.000,0.411,0.000,1.725,0.000,0.000,25.059
4367,4.185,0.000,0.411,0.000,1.725,0.000,0.000,25.078
4415,4.185,0.000,0.411,0.000,1.725,0.000,0.000,25.048
4463,4.185,0.000,0.411,0.000,1.725,0.000,0.000,25.012
4511,4.185,0.000,0.411,0.000,1.725,0.000,0.000,25.028
4559,4.185,0.000,0.411,0.000,1.725,0.000,0.000,25.005
4607,4.185,0.000,0.411,0.000,1.725,0.000,0.000,25.028
4655,4.185,0.000,0.411,0.000,1.725,0.000,0.000,25.053
4703,4.185,0.000,0.411,0.000,1.725,0.000,0.000,25.086
4751,4.185,0.000,0.411,0.000,1.725,0.000,0.000,25.078
4799,4.184,0.000,0.411,0.000,1.725,0.000,0.000,25.085
4847,4.184,0.000,0.411,0.000,1.725,0.000,0.000,25.054
4895,4.184,0.000,0.411,0.000,1.725,0.000,0.000,25.071
4943,4.184,0.000,0.411,0.000,1.725,0.000,0.000,25.080
4991,4.184,0.000,0.411,0.000,1.725,0.000,0.000,25.077
5039,4.184,0.000,0.411,0.000,1.725,0.000,0.000,25.055
5087,4.184,0.000,0.411,0.000,1.725,0.000,0.000,25.075
5135,4.184,0.000,0.411,0.000,1.725,0.000,0.000,25.061
5183,4.184,0.000,0.411,0.000,1.725,0.000,0.000,25.066
5231,4.184,0.000,0.411,0.000,1.725,0.000,0.000,25.023
5279,4.184,0.000,0.411,0.000,1.725,0.000,0.000,25.058
5327,4.184,0.000,0.411,0.000,1.725,0.000,0.000,24.994
5375,4.184,0.000,0.411,0.000,1.725,0.000,0.000,25.027
5423,4.184,0.000,0.411,0.000,1.725,0.000,0.000,25.053
5471,4.184,0.000,0.411,0.000,1.725,0.000,0.000,25.042
5519,4.183,0.000,0.411,0.000,1.725,0.000,0.000,25.044
5567,4.183,0.000,0.411,0.000,1.725,0.000,0.000,25.041
5615,4.183,0.000,0.411,0.000,1.725,0.000,0.000,25.039
5663,4.183,0.000,0.411,0.000,1.725,0.000,0.000,25.055
5711,4.183,0.000,0.411,0.000,1.725,0.000,0.000,25.080
5759,4.183,0.000,0.411,0.000,1.725,0.000,0.000,25.029
5807,4.183,0.000,0.411,0.000,1.725,0.000,0.000,25.034
5855,4.183,0.000,0.411,0.000,1.725,0.000,0.000,25.053
5903,4.183,0.000,0.411,0.000,1.725,0.000,0.000,25.056
5951,4.183,0.000,0.411,0.000,1.725,0.000,0.000,25.002
5999,4.183,0.000,0.411,0.000,1.725,0.000,0.000,25.050
6047,4.183,0.000,0.411,0.000,1.725,0.000,0.000,25.025
6095,4.183,0.000,0.411,0.000,1.725,0.000,0.000,25.012
6143,4.183,0.000,0.411,0.000,1.725,0.000,0.000,25.051
6191,4.183,0.000,0.411,0.000,1.725,0.000,0.000,25.030
6239,4.183,0.000,0.411,0.000,1.725,0.000,0.000,25.017
6287,4.183,0.000,0.411,0.000,1.725,0.000,0.000,24.991
6335,4.183,0.000,0.411,0.000,1.725,0.000,0.000,25.024
6383,4.183,0.000,0.411,0.000,1.725,0.000,0.000,25.032
6431,4.183,0.000,0.411,0.000,1.725,0.000,0.000,25.041
6479,4.183,0.000,0.411,0.000,1.725,0.000,0.000,25.063
6527,4.183,0.000,0.411,0.000,1.725,0.000,0.000,25.009
6574,3.831,-3.350,0.411,0.027,1.725,0.104,-0.001,25.227
6622,3.802,-3.350,0.411,0.072,1.725,0.274,-0.001,25.614
6670,3.784,-3.350,0.411,0.116,1.725,0.444,0.000,26.060
6718,3.771,-3.350,0.411,0.161,1.725,0.613,0.000,26.454
6766,3.758,-3.350,0.411,0.206,1.725,0.781,0.000,26.803
6814,3.745,-3.350,0.411,0.250,1.725,0.948,0.000,27.116
6862,3.732,-3.350,0.411,0.295,1.725,1.115,0.000,27.431
6909,3.984,0.000,0.411,0.335,1.725,1.265,0.003,27.674
6957,4.024,0.000,0.411,0.335,1.725,1.265,0.000,27.575
7005,4.037,0.000,0.411,0.335,1.725,1.265,0.000,27.409
7053,4.045,0.000,0.411,0.335,1.725,1.265,0.000,27.199
7101,4.049,0.000,0.411,0.335,1.725,1.265,0.000,27.007
7149,4.051,0.000,0.411,0.335,1.725,1.265,0.000,26.803
7197,4.052,0.000,0.411,0.335,1.725,1.265,0.000,26.606
7245,4.053,0.000,0.411,0.335,1.725,1.265,0.000,26.462
7293,4.054,0.000,0.411,0.335,1.725,1.265,0.000,26.313
7341,4.054,0.000,0.411,0.335,1.725,1.265,0.000,26.198
7389,4.054,0.000,0.411,0.335,1.725,1.265,0.000,26.077
7437,4.055,0.000,0.411,0.335,1.725,1.265,0.000,25.971
7485,4.055,0.000,0.411,0.335,1.725,1.265,0.000,25.866
7533,4.055,0.000,0.411,0.335,1.725,1.265,0.000,25.816
7581,4.055,0.000,0.411,0.335,1.725,1.265,0.000,25.702
7629,4.056,0.000,0.411,0.335,1.725,1.265,0.000,25.605
7677,4.056,0.000,0.411,0.335,1.725,1.265,0.000,25.614
7725,4.056,0.000,0.411,0.335,1.725,1.265,0.000,25.495
7773,4.056,0.000,0.411,0.335,1.725,1.265,0.000,25.502
7821,4.056,0.000,0.411,0.335,1.725,1.265,0.000,25.407
7869,4.056,0.000,0.411,0.335,1.725,1.265,0.000,25.370
7917,4.056,0.000,0.411,0.335,1.725,1.265,0.000,25.386
7965,4.056,0.000,0.411,0.335,1.725,1.265,0.000,25.325
8013,4.056,0.000,0.411,0.335,1.725,1.265,0.000,25.305
8061,4.057,0.000,0.411,0.335,1.725,1.265,0.000,25.285
8109,4.057,0.000,0.411,0.335,1.725,1.265,0.000,25.230
8157,4.057,0.000,0.411,0.335,1.725,1.265,0.000,25.281
8205,4.057,0.000,0.411,0.335,1.725,1.265,0.000,25.138
8253,4.057,0.000,0.411,0.335,1.725,1.265,0.000,25.175
8301,4.057,0.000,0.411,0.335,1.725,1.265,0.000,25.159
8349,4.057,0.000,0.411,0.335,1.725,1.265,0.000,25.137
8397,4.057,0.000,0.411,0.335,1.725,1.265,0.000,25.153
8445,4.057,0.000,0.411,0.335,1.725,1.265,0.000,25.115
8493,4.057,0.000,0.411,0.335,1.725,1.265,0.000,25.147
8541,4.057,0.000,0.411,0.335,1.725,1.265,0.000,25.052
8589,4.057,0.000,0.411,0.335,1.725,1.265,0.000,25.099
8637,4.057,0.000,0.411,0.335,1.725,1.265,0.000,25.059
8685,4.057,0.000,0.411,0.335,1.725,1.265,0.000,25.034
8733,4.057,0.000,0.411,0.335,1.725,1.265,0.000,25.061
8781,4.057,0.000,0.411,0.335,1.725,1.265,0.000,25.068
8829,4.057,0.000,0.411,0.335,1.725,1.265,0.000,25.046
8877,4.057,0.000,0.411,0.335,1.725,1.265,0.000,25.030
8925,4.057,0.000,0.411,0.335,1.725,1.265,0.000,25.030
8973,4.057,0.000,0.411,0.335,1.725,1.265,0.000,25.063
9021,4.057,0.000,0.411,0.335,1.725,1.265,0.000,25.020
9069,4.057,0.000,0.411,0.335,1.725,1.265,0.000,25.004
9117,4.058,0.000,0.411,0.335,1.725,1.265,0.000,25.025
9165,4.058,0.000,0.411,0.335,1.725,1.265,0.000,25.089
9213,4.058,0.000,0.411,0.335,1.725,1.265,0.000,25.073
9261,4.057,0.000,0.411,0.335,1.725,1.265,0.000,25.042
9309,4.058,0.000,0.411,0.335,1.725,1.265,0.000,25.057
9357,4.058,0.000,0.411,0.335,1.725,1.265,0.000,25.030
9405,4.058,0.000,0.411,0.335,1.725,1.265,0.000,25.097
9453,4.058,0.000,0.411,0.335,1.725,1.265,0.000,25.069
9501,4.058,0.000,0.411,0.335,1.725,1.265,0.000,25.104
9549,4.058,0.000,0.411,0.335,1.725,1.265,0.000,25.083
9597,4.058,0.000,0.411,0.335,1.725,1.265,0.000,25.038
9645,4.058,0.000,0.411,0.335,1.725,1.265,0.000,25.025
9693,4.058,0.000,0.411,0.335,1.725,1.265,0.000,25.009
9741,4.058,0.000,0.411,0.335,1.725,1.265,0.000,25.037
9789,4.058,0.000,0.411,0.335,1.725,1.265,0.000,25.030
9837,4.058,0.000,0.411,0.335,1.725,1.265,0.000,25.034
9885,4.058,0.000,0.411,0.335,1.725,1.265,0.000,25.037
9933,4.058,0.000,0.411,0.335,1.725,1.265,0.000,25.018
9981,4.058,0.000,0.411,0.335,1.725,1.265,0.000,24.993
10029,4.058,0.000,0.411,0.335,1.725,1.265,0.000,24.972
10077,4.058,0.000,0.411,0.335,1.725,1.265,0.000,24.980
10125,4.058,0.000,0.411,0.335,1.725,1.265,0.000,25.002
10173,4.058,0.000,0.411,0.335,1.725,1.265,0.000,24.984
10221,4.058,0.000,0.411,0.335,1.725,1.265,0.000,24.978
10269,4.058,0.000,0.411,0.335,1.725,1.265,0.000,25.021
10317,4.058,0.000,0.411,0.335,1.725,1.265,0.000,25.016
10365,4.058,0.000,0.411,0.335,1.725,1.265,0.000,25.017
10413,4.058,0.000,0.411,0.335,1.725,1.265,0.000,25.028
10461,4.058,0.000,0.411,0.335,1.725,1.265,0.000,25.024
10508,3.808,-3.000,0.411,0.338,1.725,1.274,-0.004,25.001
10555,4.049,0.000,0.411,0.344,1.725,1.297,0.000,25.060
10601,4.059,0.000,0.417,0.344,1.752,1.297,0.000,25.159
10648,3.721,-3.350,0.417,0.384,1.752,1.447,-0.001,25.357
10696,3.693,-3.350,0.417,0.428,1.752,1.612,0.000,25.721
10744,3.674,-3.350,0.417,0.473,1.752,1.777,0.000,26.134
10792,3.657,-3.350,0.417,0.518,1.752,1.940,0.000,26.428
10840,3.641,-3.350,0.417,0.562,1.752,2.103,0.000,26.763
10888,3.625,-3.350,0.417,0.607,1.752,2.266,0.000,27.107
10936,3.611,-3.350,0.417,0.652,1.752,2.427,0.000,27.385
10983,3.881,0.000,0.417,0.679,1.752,2.525,0.001,27.526
11031,3.903,0.000,0.417,0.679,1.752,2.525,0.000,27.417
11079,3.911,0.000,0.417,0.679,1.752,2.525,0.000,27.210
11127,3.916,0.000,0.417,0.679,1.752,2.525,0.000,27.051
11175,3.918,0.000,0.417,0.679,1.752,2.525,0.000,26.904
11223,3.920,0.000,0.417,0.679,1.752,2.525,0.000,26.749
11271,3.922,0.000,0.417,0.679,1.752,2.525,0.000,26.644
11319,3.923,0.000,0.417,0.679,1.752,2.525,0.000,26.514
11367,3.925,0.000,0.417,0.679,1.752,2.525,0.000,26.397
11415,3.927,0.000,0.417,0.679,1.752,2.525,0.000,26.285
11463,3.929,0.000,0.417,0.679,1.752,2.525,0.000,26.190
11511,3.931,0.000,0.417,0.679,1.752,2.525,0.000,26.067
11559,3.934,0.000,0.417,0.679,1.752,2.525,0.000,25.954
11607,3.936,0.000,0.417,0.679,1.752,2.525,0.000,25.929
11655,3.937,0.000,0.417,0.679,1.752,2.525,0.000,25.784
11703,3.938,0.000,0.417,0.679,1.752,2.525,0.000,25.730
11751,3.939,0.000,0.417,0.679,1.752,2.525,0.000,25.658
11799,3.940,0.000,0.417,0.679,1.752,2.525,0.000,25.607
11847,3.940,0.000,0.417,0.679,1.752,2.525,0.000,25.571
11895,3.941,0.000,0.417,0.679,1.752,2.525,0.000,25.462
11943,3.941,0.000,0.417,0.679,1.752,2.525,0.000,25.417
11991,3.941,0.000,0.417,0.679,1.752,2.525,0.000,25.325
12039,3.941,0.000,0.417,0.679,1.752,2.525,0.000,25.291
12087,3.942,0.000,0.417,0.679,1.752,2.525,0.000,25.260
12135,3.942,0.000,0.417,0.679,1.752,2.525,0.000,25.250
12183,3.942,0.000,0.417,0.679,1.752,2.525,0.000,25.235
12231,3.942,0.000,0.417,0.679,1.752,2.525,0.000,25.223
12279,3.942,0.000,0.417,0.679,1.752,2.525,0.000,25.191
12327,3.942,0.000,0.417,0.679,1.752,2.525,0.000,25.114
12375,3.942,0.000,0.417,0.679,1.752,2.525,0.000,25.137
12423,3.942,0.000,0.417,0.679,1.752,2.525,0.000,25.127
12471,3.942,0.000,0.417,0.679,1.752,2.525,0.000,25.124
12519,3.942,0.000,0.417,0.679,1.752,2.525,0.000,25.144
12567,3.942,0.000,0.417,0.679,1.752,2.525,0.000,25.123
12615,3.942,0.000,0.417,0.679,1.752,2.525,0.000,25.109
12663,3.942,0.000,0.417,0.679,1.752,2.525,0.000,25.084
12711,3.942,0.000,0.417,0.679,1.752,2.525,0.000,25.080
12759,3.942,0.000,0.417,0.679,1.752,2.525,0.000,25.073
12807,3.943,0.000,0.417,0.679,1.752,2.525,0.000,25.059
12855,3.943,0.000,0.417,0.679,1.752,2.525,0.000,25.060
12903,3.943,0.000,0.417,0.679,1.752,2.525,0.000,25.097
12951,3.943,0.000,0.417,0.679,1.752,2.525,0.000,25.012
12999,3.943,0.000,0.417,0.679,1.752,2.525,0.000,25.031
13047,3.943,0.000,0.417,0.679,1.752,2.525,0.000,25.005
13095,3.943,0.000,0.417,0.679,1.752,2.525,0.000,25.046
13143,3.943,0.000,0.417,0.679,1.752,2.525,0.000,25.017
13191,3.943,0.000,0.417,0.679,1.752,2.525,0.000,25.041
13239,3.943,0.000,0.417,0.679,1.752,2.525,0.000,25.047
13287,3.943,0.000,0.417,0.679,1.752,2.525,0.000,25.023
13335,3.943,0.000,0.417,0.679,1.752,2.525,0.000,24.983
13383,3.943,0.000,0.417,0.679,1.752,2.525,0.000,25.027
13431,3.943,0.000,0.417,0.679,1.752,2.525,0.000,24.963
13479,3.943,0.000,0.417,0.679,1.752,2.525,0.000,25.033
13527,3.943,0.000,0.417,0.679,1.752,2.525,0.000,25.020
13575,3.943,0.000,0.417,0.679,1.752,2.525,0.000,24.997
13623,3.943,0.000,0.417,0.679,1.752,2.525,0.000,25.013
13671,3.943,0.000,0.417,0.679,1.752,2.525,0.000,24.959
13719,3.943,0.000,0.417,0.679,1.752,2.525,0.000,25.035
13767,3.943,0.000,0.417,0.679,1.752,2.525,0.000,24.997
13815,3.943,0.000,0.417,0.679,1.752,2.525,0.000,25.006
13863,3.943,0.000,0.417,0.679,1.752,2.525,0.000,24.993
13911,3.943,0.000,0.417,0.679,1.752,2.525,0.000,25.039
13959,3.943,0.000,0.417,0.679,1.752,2.525,0.000,25.004
14007,3.943,0.000,0.417,0.679,1.752,2.525,0.000,24.987
14055,3.943,0.000,0.417,0.679,1.752,2.525,0.000,24.995
14103,3.943,0.000,0.417,0.679,1.752,2.525,0.000,24.982
14151,3.943,0.000,0.417,0.679,1.752,2.525,0.000,24.995
14199,3.943,0.000,0.417,0.679,1.752,2.525,0.000,24.983
14247,3.943,0.000,0.417,0.679,1.752,2.525,0.000,25.009
14295,3.943,0.000,0.417,0.679,1.752,2.525,0.000,25.006
14343,3.943,0.000,0.417,0.679,1.752,2.525,0.000,25.031
14391,3.943,0.000,0.417,0.679,1.752,2.525,0.000,24.961
14439,3.943,0.000,0.417,0.679,1.752,2.525,0.000,24.982
14487,3.943,0.000,0.417,0.679,1.752,2.525,0.000,24.972
14535,3.943,0.000,0.417,0.679,1.752,2.525,0.000,24.997
14581,3.921,0.000,0.417,0.687,1.752,2.556,0.001,25.000
14627,3.954,0.000,0.423,0.687,1.777,2.556,-0.002,25.049
14674,3.653,-3.350,0.423,0.695,1.778,2.587,-0.003,25.098
14722,3.604,-3.350,0.423,0.740,1.778,2.748,0.000,25.399
14770,3.585,-3.350,0.423,0.785,1.778,2.909,0.000,25.726
14818,3.568,-3.350,0.423,0.829,1.778,3.069,0.000,26.010
14866,3.552,-3.350,0.423,0.874,1.778,3.228,0.000,26.356
14914,3.537,-3.350,0.423,0.919,1.778,3.386,-0.001,26.653
14962,3.523,-3.350,0.423,0.963,1.778,3.544,0.000,26.972
15010,3.510,-3.350,0.423,1.008,1.778,3.701,0.000,27.287
15057,3.795,0.000,0.423,1.022,1.778,3.750,0.000,27.416
15105,3.813,0.000,0.423,1.022,1.778,3.750,0.000,27.287
15153,3.820,0.000,0.423,1.022,1.778,3.750,0.000,27.098
15201,3.824,0.000,0.423,1.022,1.778,3.750,0.000,26.895
15249,3.826,0.000,0.423,1.022,1.778,3.750,0.000,26.802
15297,3.828,0.000,0.423,1.022,1.778,3.750,0.000,26.611
15345,3.830,0.000,0.423,1.022,1.778,3.750,0.000,26.529
15393,3.831,0.000,0.423,1.022,1.778,3.750,0.000,26.388
15441,3.831,0.000,0.423,1.022,1.778,3.750,0.000,26.309
15489,3.832,0.000,0.423,1.022,1.778,3.750,0.000,26.257
15537,3.833,0.000,0.423,1.022,1.778,3.750,0.000,26.096
15585,3.833,0.000,0.423,1.022,1.778,3.750,0.000,26.053
15633,3.834,0.000,0.423,1.022,1.778,3.750,0.000,25.977
15681,3.835,0.000,0.423,1.022,1.778,3.750,0.000,25.921
15729,3.835,0.000,0.423,1.022,1.778,3.750,0.000,25.836
15777,3.836,0.000,0.423,1.022,1.778,3.750,0.000,25.814
15825,3.837,0.000,0.423,1.022,1.778,3.750,0.000,25.776
15873,3.837,0.000,0.423,1.022,1.778,3.750,0.000,25.744
15921,3.838,0.000,0.423,1.022,1.778,3.750,0.000,25.640
15969,3.839,0.000,0.423,1.022,1.778,3.750,0.000,25.659
16017,3.840,0.000,0.423,1.022,1.778,3.750,0.000,25.553
16065,3.841,0.000,0.423,1.022,1.778,3.750,0.000,25.571
16113,3.842,0.000,0.423,1.022,1.778,3.750,0.000,25.494
16161,3.843,0.000,0.423,1.022,1.778,3.750,0.000,25.481
16209,3.845,0.000,0.423,1.022,1.778,3.750,0.000,25.453
16257,3.846,0.000,0.423,1.022,1.778,3.750,0.000,25.413
16305,3.847,0.000,0.423,1.022,1.778,3.750,0.000,25.390
16353,3.849,0.000,0.423,1.022,1.778,3.750,0.000,25.365
16401,3.850,0.000,0.423,1.022,1.778,3.750,0.000,25.343
16449,3.851,0.000,0.423,1.022,1.778,3.750,0.000,25.296
16497,3.852,0.000,0.423,1.022,1.778,3.750,0.000,25.258
16545,3.853,0.000,0.423,1.022,1.778,3.750,0.000,25.236
16593,3.854,0.000,0.423,1.022,1.778,3.750,0.000,25.203
16641,3.855,0.000,0.423,1.022,1.778,3.750,0.000,25.177
16689,3.855,0.000,0.423,1.022,1.778,3.750,0.000,25.161
16737,3.856,0.000,0.423,1.022,1.778,3.750,0.000,25.148
16785,3.856,0.000,0.423,1.022,1.778,3.750,0.000,25.159
16833,3.856,0.000,0.423,1.022,1.778,3.750,0.000,25.137
16881,3.856,0.000,0.423,1.022,1.778,3.750,0.000,25.140
16929,3.856,0.000,0.423,1.022,1.778,3.750,0.000,25.131
16977,3.857,0.000,0.423,1.022,1.778,3.750,0.000,25.114
17025,3.857,0.000,0.423,1.022,1.778,3.750,0.000,25.101
17073,3.857,0.000,0.423,1.022,1.778,3.750,0.000,25.101
17121,3.857,0.000,0.423,1.022,1.778,3.750,0.000,25.114
17169,3.857,0.000,0.423,1.022,1.778,3.750,0.000,25.055
17217,3.857,0.000,0.423,1.022,1.778,3.750,0.000,25.065
17265,3.857,0.000,0.423,1.022,1.778,3.750,0.000,25.100
17313,3.857,0.000,0.423,1.022,1.778,3.750,0.000,25.073
17361,3.857,0.000,0.423,1.022,1.778,3.750,0.000,25.060
17409,3.857,0.000,0.423,1.022,1.778,3.750,0.000,25.034
17457,3.858,0.000,0.423,1.022,1.778,3.750,0.000,25.033
17505,3.858,0.000,0.423,1.022,1.778,3.750,0.000,25.067
17553,3.858,0.000,0.423,1.022,1.778,3.750,0.000,25.012
17601,3.858,0.000,0.423,1.022,1.778,3.750,0.000,25.057
17649,3.858,0.000,0.423,1.022,1.778,3.750,0.000,25.000
17697,3.858,0.000,0.423,1.022,1.778,3.750,0.000,25.042
17745,3.858,0.000,0.423,1.022,1.778,3.750,0.000,25.029
17793,3.858,0.000,0.423,1.022,1.778,3.750,0.000,25.005
17841,3.858,0.000,0.423,1.022,1.778,3.750,0.000,24.967
17889,3.858,0.000,0.423,1.022,1.778,3.750,0.000,24.968
17937,3.858,0.000,0.423,1.022,1.778,3.750,0.000,25.036
17985,3.858,0.000,0.423,1.022,1.778,3.750,0.000,25.030
18033,3.858,0.000,0.423,1.022,1.778,3.750,0.000,25.035
18081,3.858,0.000,0.423,1.022,1.778,3.750,0.000,25.024
18129,3.858,0.000,0.423,1.022,1.778,3.750,0.000,25.030
18177,3.858,0.000,0.423,1.022,1.778,3.750,0.000,25.039
18225,3.858,0.000,0.423,1.022,1.778,3.750,0.000,24.965
18273,3.858,0.000,0.423,1.022,1.778,3.750,0.000,24.992
18321,3.858,0.000,0.423,1.022,1.778,3.750,0.000,24.932
18369,3.858,0.000,0.423,1.022,1.778,3.750,0.000,24.970
18417,3.858,0.000,0.423,1.022,1.778,3.750,0.000,24.985
18465,3.858,0.000,0.423,1.022,1.778,3.750,0.000,24.981
18513,3.858,0.000,0.423,1.022,1.778,3.750,0.000,24.994
18561,3.858,0.000,0.423,1.022,1.778,3.750,0.000,24.975
18609,3.858,0.000,0.423,1.022,1.778,3.750,0.000,24.965
18656,3.842,0.000,0.423,1.030,1.778,3.780,0.000,25.060
18702,3.862,0.000,0.430,1.031,1.803,3.780,0.000,25.079
18749,3.543,-3.350,0.430,1.052,1.803,3.857,-0.001,25.209
18797,3.512,-3.350,0.430,1.097,1.803,4.014,0.000,25.508
18845,3.493,-3.350,0.430,1.141,1.803,4.171,0.000,25.817
18893,3.476,-3.350,0.430,1.186,1.803,4.326,0.000,26.129
18941,3.459,-3.350,0.430,1.231,1.803,4.481,-0.001,26.464
18989,3.442,-3.350,0.430,1.275,1.803,4.635,-0.001,26.777
19037,3.425,-3.350,0.430,1.320,1.803,4.789,0.000,27.050
19085,3.409,-3.350,0.430,1.365,1.803,4.941,0.000,27.297
19132,3.707,0.000,0.430,1.366,1.803,4.944,0.000,27.296
19180,3.721,0.000,0.430,1.366,1.803,4.944,0.000,27.086
19228,3.727,0.000,0.430,1.366,1.803,4.944,0.000,26.947
19276,3.730,0.000,0.430,1.366,1.803,4.944,0.000,26.828
19324,3.732,0.000,0.430,1.366,1.803,4.944,0.000,26.640
19372,3.734,0.000,0.430,1.366,1.803,4.944,0.000,26.498
19420,3.735,0.000,0.430,1.366,1.803,4.944,0.000,26.393
19468,3.737,0.000,0.430,1.366,1.803,4.944,0.000,26.266
19516,3.738,0.000,0.430,1.366,1.803,4.944,0.000,26.171
19564,3.738,0.000,0.430,1.366,1.803,4.944,0.000,26.103
19612,3.739,0.000,0.430,1.366,1.803,4.944,0.000,26.006
19660,3.740,0.000,0.430,1.366,1.803,4.944,0.000,25.943
19708,3.740,0.000,0.430,1.366,1.803,4.944,0.000,25.894
19756,3.740,0.000,0.430,1.366,1.803,4.944,0.000,25.848
19804,3.741,0.000,0.430,1.366,1.803,4.944,0.000,25.775
19852,3.741,0.000,0.430,1.366,1.803,4.944,0.000,25.730
19900,3.741,0.000,0.430,1.366,1.803,4.944,0.000,25.690
19948,3.742,0.000,0.430,1.366,1.803,4.944,0.000,25.677
19996,3.742,0.000,0.430,1.366,1.803,4.944,0.000,25.619
20044,3.742,0.000,0.430,1.366,1.803,4.944,0.000,25.618
20092,3.743,0.000,0.430,1.366,1.803,4.944,0.000,25.609
20140,3.743,0.000,0.430,1.366,1.803,4.944,0.000,25.503
20188,3.743,0.000,0.430,1.366,1.803,4.944,0.000,25.471
20236,3.744,0.000,0.430,1.366,1.803,4.944,0.000,25.483
20284,3.744,0.000,0.430,1.366,1.803,4.944,0.000,25.427
20332,3.744,0.000,0.430,1.366,1.803,4.944,0.000,25.432
20380,3.744,0.000,0.430,1.366,1.803,4.944,0.000,25.393
20428,3.744,0.000,0.430,1.366,1.803,4.944,0.000,25.377
20476,3.745,0.000,0.430,1.366,1.803,4.944,0.000,25.343
20524,3.745,0.000,0.430,1.366,1.803,4.944,0.000,25.275
20572,3.745,0.000,0.430,1.366,1.803,4.944,0.000,25.258
20620,3.746,0.000,0.430,1.366,1.803,4.944,0.000,25.292
20668,3.746,0.000,0.430,1.366,1.803,4.944,0.000,25.256
20716,3.746,0.000,0.430,1.366,1.803,4.944,0.000,25.295
20764,3.746,0.000,0.430,1.366,1.803,4.944,0.000,25.247
20812,3.746,0.000,0.430,1.366,1.803,4.944,0.000,25.274
20860,3.747,0.000,0.430,1.366,1.803,4.944,0.000,25.179
20908,3.747,0.000,0.430,1.366,1.803,4.944,0.000,25.234
20956,3.748,0.000,0.430,1.366,1.803,4.944,0.000,25.179
21004,3.748,0.000,0.430,1.366,1.803,4.944,0.000,25.186
21052,3.748,0.000,0.430,1.366,1.803,4.944,0.000,25.186
21100,3.749,0.000,0.430,1.366,1.803,4.944,0.000,25.201
21148,3.749,0.000,0.430,1.366,1.803,4.944,0.000,25.146
21196,3.749,0.000,0.430,1.366,1.803,4.944,0.000,25.146
21244,3.750,0.000,0.430,1.366,1.803,4.944,0.000,25.152
21292,3.750,0.000,0.430,1.366,1.803,4.944,0.000,25.058
21340,3.750,0.000,0.430,1.366,1.803,4.944,0.000,25.101
21388,3.751,0.000,0.430,1.366,1.803,4.944,0.000,25.101
21436,3.751,0.000,0.430,1.366,1.803,4.944,0.000,25.088
21484,3.752,0.000,0.430,1.366,1.803,4.944,0.000,25.124
21532,3.752,0.000,0.430,1.366,1.803,4.944,0.000,25.127
21580,3.753,0.000,0.430,1.366,1.803,4.944,0.000,25.087
21628,3.754,0.000,0.430,1.366,1.803,4.944,0.000,25.118
21676,3.754,0.000,0.430,1.366,1.803,4.944,0.000,25.059
21724,3.755,0.000,0.430,1.366,1.803,4.944,0.000,25.064
21772,3.755,0.000,0.430,1.366,1.803,4.944,0.000,25.064
21820,3.756,0.000,0.430,1.366,1.803,4.944,0.000,25.065
21868,3.756,0.000,0.430,1.366,1.803,4.944,0.000,25.088
21916,3.757,0.000,0.430,1.366,1.803,4.944,0.000,25.088
21964,3.757,0.000,0.430,1.366,1.803,4.944,0.000,25.097
22012,3.758,0.000,0.430,1.366,1.803,4.944,0.000,25.066
22060,3.758,0.000,0.430,1.366,1.803,4.944,0.000,25.063
22108,3.759,0.000,0.430,1.366,1.803,4.944,0.000,25.057
22156,3.759,0.000,0.430,1.366,1.803,4.944,0.000,25.053
22204,3.760,0.000,0.430,1.366,1.803,4.944,0.000,25.045
22252,3.760,0.000,0.430,1.366,1.803,4.944,0.000,25.006
22300,3.760,0.000,0.430,1.366,1.803,4.944,0.000,25.019
22348,3.761,0.000,0.430,1.366,1.803,4.944,0.000,25.037
22396,3.761,0.000,0.430,1.366,1.803,4.944,0.000,25.043
22444,3.761,0.000,0.430,1.366,1.803,4.944,0.000,25.049
22492,3.762,0.000,0.430,1.366,1.803,4.944,0.000,25.009
22540,3.762,0.000,0.430,1.366,1.803,4.944,0.000,25.007
22588,3.762,0.000,0.430,1.366,1.803,4.944,0.000,25.030
22636,3.762,0.000,0.430,1.366,1.803,4.944,0.000,25.057
22684,3.762,0.000,0.430,1.366,1.803,4.944,0.000,25.012
22730,3.747,0.000,0.430,1.374,1.803,4.974,0.000,25.062
22776,3.763,0.000,0.436,1.374,1.827,4.974,0.000,25.162
22823,3.435,-3.350,0.436,1.408,1.828,5.093,-0.001,25.269
22871,3.411,-3.350,0.436,1.453,1.828,5.246,0.000,25.581
22919,3.393,-3.350,0.436,1.498,1.828,5.398,0.000,25.914
22967,3.377,-3.350,0.436,1.542,1.828,5.549,0.000,26.185
23015,3.361,-3.350,0.436,1.587,1.828,5.700,0.000,26.432
23063,3.345,-3.350,0.436,1.632,1.828,5.849,0.000,26.738
23111,3.330,-3.350,0.436,1.676,1.828,5.999,0.000,26.986
23158,3.599,0.000,0.436,1.709,1.828,6.107,0.001,27.283
23206,3.627,0.000,0.436,1.709,1.828,6.107,0.000,27.107
23254,3.636,0.000,0.436,1.709,1.828,6.107,0.000,26.902
23302,3.641,0.000,0.436,1.709,1.828,6.107,0.000,26.769
23350,3.645,0.000,0.436,1.709,1.828,6.107,0.000,26.526
23398,3.646,0.000,0.436,1.709,1.828,6.107,0.000,26.452
23446,3.647,0.000,0.436,1.709,1.828,6.107,0.000,26.258
23494,3.648,0.000,0.436,1.709,1.828,6.107,0.000,26.153
23542,3.649,0.000,0.436,1.709,1.828,6.107,0.000,26.047
23590,3.650,0.000,0.436,1.709,1.828,6.107,0.000,25.933
23638,3.650,0.000,0.436,1.709,1.828,6.107,0.000,25.877
23686,3.650,0.000,0.436,1.709,1.828,6.107,0.000,25.786
23734,3.651,0.000,0.436,1.709,1.828,6.107,0.000,25.642
23782,3.651,0.000,0.436,1.709,1.828,6.107,0.000,25.646
23830,3.651,0.000,0.436,1.709,1.828,6.107,0.000,25.585
23878,3.652,0.000,0.436,1.709,1.828,6.107,0.000,25.491
23926,3.652,0.000,0.436,1.709,1.828,6.107,0.000,25.454
23974,3.652,0.000,0.436,1.709,1.828,6.107,0.000,25.422
24022,3.652,0.000,0.436,1.709,1.828,6.107,0.000,25.351
24070,3.652,0.000,0.436,1.709,1.828,6.107,0.000,25.339
24118,3.653,0.000,0.436,1.709,1.828,6.107,0.000,25.340
24166,3.653,0.000,0.436,1.709,1.828,6.107,0.000,25.275
24214,3.653,0.000,0.436,1.709,1.828,6.107,0.000,25.294
24262,3.653,0.000,0.436,1.709,1.828,6.107,0.000,25.210
24310,3.653,0.000,0.436,1.709,1.828,6.107,0.000,25.194
24358,3.654,0.000,0.436,1.709,1.828,6.107,0.000,25.203
24406,3.654,0.000,0.436,1.709,1.828,6.107,0.000,25.181
24454,3.654,0.000,0.436,1.709,1.828,6.107,0.000,25.170
24502,3.654,0.000,0.436,1.709,1.828,6.107,0.000,25.187
24550,3.654,0.000,0.436,1.709,1.828,6.107,0.000,25.150
24598,3.654,0.000,0.436,1.709,1.828,6.107,0.000,25.146
24646,3.654,0.000,0.436,1.709,1.828,6.107,0.000,25.133
24694,3.654,0.000,0.436,1.709,1.828,6.107,0.000,25.112
24742,3.654,0.000,0.436,1.709,1.828,6.107,0.000,25.131
24790,3.654,0.000,0.436,1.709,1.828,6.107,0.000,25.125
24838,3.655,0.000,0.436,1.709,1.828,6.107,0.000,25.136
24886,3.655,0.000,0.436,1.709,1.828,6.107,0.000,25.080
24934,3.655,0.000,0.436,1.709,1.828,6.107,0.000,25.090
24982,3.655,0.000,0.436,1.709,1.828,6.107,0.000,25.045
25030,3.655,0.000,0.436,1.709,1.828,6.107,0.000,25.095
25078,3.655,0.000,0.436,1.709,1.828,6.107,0.000,25.116
25126,3.655,0.000,0.436,1.709,1.828,6.107,0.000,25.042
25174,3.655,0.000,0.436,1.709,1.828,6.107,0.000,25.062
25222,3.655,0.000,0.436,1.709,1.828,6.107,0.000,25.022
25270,3.655,0.000,0.436,1.709,1.828,6.107,0.000,25.049
25318,3.655,0.000,0.436,1.709,1.828,6.107,0.000,25.062
25366,3.655,0.000,0.436,1.709,1.828,6.107,0.000,24.993
25414,3.655,0.000,0.436,1.709,1.828,6.107,0.000,25.037
25462,3.655,0.000,0.436,1.709,1.828,6.107,0.000,25.058
25510,3.656,0.000,0.436,1.709,1.828,6.107,0.000,25.029
25558,3.656,0.000,0.436,1.709,1.828,6.107,0.000,25.018
25606,3.656,0.000,0.436,1.709,1.828,6.107,0.000,25.047
25654,3.656,0.000,0.436,1.709,1.828,6.107,0.000,25.015
25702,3.656,0.000,0.436,1.709,1.828,6.107,0.000,25.020
25750,3.656,0.000,0.436,1.709,1.828,6.107,0.000,25.019
25798,3.656,0.000,0.436,1.709,1.828,6.107,0.000,25.012
25846,3.656,0.000,0.436,1.709,1.828,6.107,0.000,25.017
25894,3.656,0.000,0.436,1.709,1.828,6.107,0.000,24.958
25942,3.656,0.000,0.436,1.709,1.828,6.107,0.000,24.981
25990,3.656,0.000,0.436,1.709,1.828,6.107,0.000,25.027
26038,3.656,0.000,0.436,1.709,1.828,6.107,0.000,24.985
26086,3.656,0.000,0.436,1.709,1.828,6.107,0.000,24.990
26134,3.656,0.000,0.436,1.709,1.828,6.107,0.000,25.008
26182,3.656,0.000,0.436,1.709,1.828,6.107,0.000,24.994
26230,3.656,0.000,0.436,1.709,1.828,6.107,0.000,25.026
26278,3.656,0.000,0.436,1.709,1.828,6.107,0.000,24.989
26326,3.656,0.000,0.436,1.709,1.828,6.107,0.000,25.037
26374,3.656,0.000,0.436,1.709,1.828,6.107,0.000,24.988
26422,3.657,0.000,0.436,1.709,1.828,6.107,0.000,25.027
26470,3.657,0.000,0.436,1.709,1.828,6.107,0.000,25.019
26518,3.657,0.000,0.436,1.709,1.828,6.107,0.000,25.015
26566,3.656,0.000,0.436,1.709,1.828,6.107,0.000,25.039
26614,3.657,0.000,0.436,1.709,1.828,6.107,0.000,25.043
26662,3.657,0.000,0.436,1.709,1.828,6.107,0.000,25.035
26710,3.657,0.000,0.436,1.709,1.828,6.107,0.000,25.022
26756,3.403,-3.000,0.436,1.717,1.828,6.135,-0.001,24.987
26803,3.834,2.250,0.440,1.717,1.844,6.136,0.002,25.058
26850,3.390,-3.350,0.442,1.720,1.852,6.145,-0.003,25.112
26898,3.330,-3.350,0.442,1.765,1.852,6.295,-0.001,25.405
26946,3.305,-3.350,0.442,1.810,1.852,6.443,0.000,25.754
26994,3.287,-3.350,0.442,1.854,1.852,6.590,0.000,26.146
27042,3.273,-3.350,0.442,1.899,1.852,6.737,0.000,26.492
27090,3.259,-3.350,0.442,1.944,1.852,6.883,0.000,26.891
27138,3.247,-3.350,0.442,1.988,1.852,7.028,0.000,27.237
27186,3.235,-3.350,0.442,2.033,1.852,7.173,0.000,27.597
27233,3.530,0.000,0.442,2.052,1.852,7.236,0.001,27.715
27281,3.555,0.000,0.442,2.052,1.852,7.236,0.000,27.461
27329,3.567,0.000,0.442,2.052,1.852,7.236,0.000,27.218
27377,3.573,0.000,0.442,2.052,1.852,7.236,0.000,26.986
27425,3.576,0.000,0.442,2.052,1.852,7.236,0.000,26.799
27473,3.580,0.000,0.442,2.052,1.852,7.236,0.000,26.587
27521,3.582,0.000,0.442,2.052,1.852,7.236,0.000,26.385
27569,3.584,0.000,0.442,2.052,1.852,7.236,0.000,26.243
27617,3.585,0.000,0.442,2.052,1.852,7.236,0.000,26.137
27665,3.586,0.000,0.442,2.052,1.852,7.236,0.000,26.049
27713,3.587,0.000,0.442,2.052,1.852,7.236,0.000,25.936
27761,3.588,0.000,0.442,2.052,1.852,7.236,0.000,25.849
27809,3.588,0.000,0.442,2.052,1.852,7.236,0.000,25.781
27857,3.589,0.000,0.442,2.052,1.852,7.236,0.000,25.650
27905,3.589,0.000,0.442,2.052,1.852,7.236,0.000,25.579
27953,3.590,0.000,0.442,2.052,1.852,7.236,0.000,25.524
28001,3.590,0.000,0.442,2.052,1.852,7.236,0.000,25.524
28049,3.590,0.000,0.442,2.052,1.852,7.236,0.000,25.454
28097,3.590,0.000,0.442,2.052,1.852,7.236,0.000,25.377
28145,3.590,0.000,0.442,2.052,1.852,7.236,0.000,25.404
28193,3.591,0.000,0.442,2.052,1.852,7.236,0.000,25.333
28241,3.591,0.000,0.442,2.052,1.852,7.236,0.000,25.303
28289,3.591,0.000,0.442,2.052,1.852,7.236,0.000,25.240
28337,3.591,0.000,0.442,2.052,1.852,7.236,0.000,25.226
28385,3.591,0.000,0.442,2.052,1.852,7.236,0.000,25.192
28433,3.591,0.000,0.442,2.052,1.852,7.236,0.000,25.161
28481,3.591,0.000,0.442,2.052,1.852,7.236,0.000,25.201
28529,3.591,0.000,0.442,2.052,1.852,7.236,0.000,25.175
28577,3.592,0.000,0.442,2.052,1.852,7.236,0.000,25.118
28625,3.592,0.000,0.442,2.052,1.852,7.236,0.000,25.149
28673,3.592,0.000,0.442,2.052,1.852,7.236,0.000,25.119
28721,3.592,0.000,0.442,2.052,1.852,7.236,0.000,25.117
28769,3.592,0.000,0.442,2.052,1.852,7.236,0.000,25.074
28817,3.592,0.000,0.442,2.052,1.852,7.236,0.000,25.120
28865,3.592,0.000,0.442,2.052,1.852,7.236,0.000,25.055
28913,3.592,0.000,0.442,2.052,1.852,7.236,0.000,25.021
28961,3.592,0.000,0.442,2.052,1.852,7.236,0.000,25.039
29009,3.592,0.000,0.442,2.052,1.852,7.236,0.000,24.989
29057,3.592,0.000,0.442,2.052,1.852,7.236,0.000,25.047
29105,3.593,0.000,0.442,2.052,1.852,7.236,0.000,25.009
29153,3.593,0.000,0.442,2.052,1.852,7.236,0.000,25.046
29201,3.593,0.000,0.442,2.052,1.852,7.236,0.000,25.051
29249,3.593,0.000,0.442,2.052,1.852,7.236,0.000,25.026
29297,3.593,0.000,0.442,2.052,1.852,7.236,0.000,25.041
29345,3.593,0.000,0.442,2.052,1.852,7.236,0.000,25.048
29393,3.593,0.000,0.442,2.052,1.852,7.236,0.000,25.027
29441,3.593,0.000,0.442,2.052,1.852,7.236,0.000,25.009
29489,3.593,0.000,0.442,2.052,1.852,7.236,0.000,25.065
29537,3.593,0.000,0.442,2.052,1.852,7.236,0.000,25.053
29585,3.593,0.000,0.442,2.052,1.852,7.236,0.000,24.980
29633,3.593,0.000,0.442,2.052,1.852,7.236,0.000,25.034
29681,3.593,0.000,0.442,2.052,1.852,7.236,0.000,25.020
29729,3.593,0.000,0.442,2.052,1.852,7.236,0.000,24.975
29777,3.593,0.000,0.442,2.052,1.852,7.236,0.000,24.997
29825,3.593,0.000,0.442,2.052,1.852,7.236,0.000,25.006
29873,3.593,0.000,0.442,2.052,1.852,7.236,0.000,24.995
29921,3.593,0.000,0.442,2.052,1.852,7.236,0.000,25.000
29969,3.593,0.000,0.442,2.052,1.852,7.236,0.000,25.021
30017,3.593,0.000,0.442,2.052,1.852,7.236,0.000,24.999
30065,3.593,0.000,0.442,2.052,1.852,7.236,0.000,24.980
30113,3.593,0.000,0.442,2.052,1.852,7.236,0.000,25.003
30161,3.594,0.000,0.442,2.052,1.852,7.236,0.000,24.974
30209,3.593,0.000,0.442,2.052,1.852,7.236,0.000,24.982
30257,3.593,0.000,0.442,2.052,1.852,7.236,0.000,25.015
30305,3.594,0.000,0.442,2.052,1.852,7.236,0.000,24.981
30353,3.594,0.000,0.442,2.052,1.852,7.236,0.000,25.015
30401,3.594,0.000,0.442,2.052,1.852,7.236,0.000,25.002
30449,3.594,0.000,0.442,2.052,1.852,7.236,0.000,24.986
30497,3.594,0.000,0.442,2.052,1.852,7.236,0.000,24.981
30545,3.594,0.000,0.442,2.052,1.852,7.236,0.000,25.028
30593,3.594,0.000,0.442,2.052,1.852,7.236,0.000,24.984
30641,3.594,0.000,0.442,2.052,1.852,7.236,0.000,24.960
30689,3.594,0.000,0.442,2.052,1.852,7.236,0.000,24.938
30737,3.594,0.000,0.442,2.052,1.852,7.236,0.000,24.968
30785,3.594,0.000,0.442,2.052,1.852,7.236,0.000,25.002
30831,3.581,0.000,0.442,2.061,1.852,7.264,0.000,25.051
30877,3.598,0.000,0.448,2.061,1.875,7.264,0.000,25.097
30924,3.294,-3.350,0.449,2.077,1.875,7.317,-0.001,25.179
30972,3.248,-3.350,0.449,2.121,1.875,7.463,-0.001,25.587
31020,3.220,-3.350,0.449,2.166,1.875,7.607,0.000,26.007
31068,3.199,-3.350,0.449,2.211,1.875,7.750,0.000,26.484
31116,3.184,-3.350,0.449,2.255,1.875,7.893,0.000,26.949
31164,3.171,-3.350,0.449,2.300,1.875,8.035,0.000,27.398
31212,3.158,-3.350,0.449,2.345,1.875,8.176,0.000,27.755
31260,3.143,-3.350,0.449,2.389,1.875,8.317,0.000,28.100
31307,3.457,0.000,0.449,2.396,1.875,8.338,0.000,28.138
31355,3.472,0.000,0.449,2.396,1.875,8.338,0.000,27.843
31403,3.484,0.000,0.449,2.396,1.875,8.338,0.000,27.594
31451,3.495,0.000,0.449,2.396,1.875,8.338,0.000,27.296
31499,3.502,0.000,0.449,2.396,1.875,8.338,0.000,27.052
31547,3.508,0.000,0.449,2.396,1.875,8.338,0.000,26.788
31595,3.512,0.000,0.449,2.396,1.875,8.338,0.000,26.609
31643,3.515,0.000,0.449,2.396,1.875,8.338,0.000,26.440
31691,3.518,0.000,0.449,2.396,1.875,8.338,0.000,26.284
31739,3.519,0.000,0.449,2.396,1.875,8.338,0.000,26.137
31787,3.521,0.000,0.449,2.396,1.875,8.338,0.000,25.992
31835,3.522,0.000,0.449,2.396,1.875,8.338,0.000,25.915
31883,3.523,0.000,0.449,2.396,1.875,8.338,0.000,25.798
31931,3.525,0.000,0.449,2.396,1.875,8.338,0.000,25.723
31979,3.525,0.000,0.449,2.396,1.875,8.338,0.000,25.644
32027,3.527,0.000,0.449,2.396,1.875,8.338,0.000,25.605
32075,3.527,0.000,0.449,2.396,1.875,8.338,0.000,25.523
32123,3.528,0.000,0.449,2.396,1.875,8.338,0.000,25.429
32171,3.529,0.000,0.449,2.396,1.875,8.338,0.000,25.403
32219,3.529,0.000,0.449,2.396,1.875,8.338,0.000,25.316
32267,3.530,0.000,0.449,2.396,1.875,8.338,0.000,25.311
32315,3.531,0.000,0.449,2.396,1.875,8.338,0.000,25.333
32363,3.531,0.000,0.449,2.396,1.875,8.338,0.000,25.239
32411,3.531,0.000,0.449,2.396,1.875,8.338,0.000,25.221
32459,3.532,0.000,0.449,2.396,1.875,8.338,0.000,25.195
32507,3.532,0.000,0.449,2.396,1.875,8.338,0.000,25.203
32555,3.532,0.000,0.449,2.396,1.875,8.338,0.000,25.133
32603,3.533,0.000,0.449,2.396,1.875,8.338,0.000,25.106
32651,3.533,0.000,0.449,2.396,1.875,8.338,0.000,25.102
32699,3.533,0.000,0.449,2.396,1.875,8.338,0.000,25.088
32747,3.534,0.000,0.449,2.396,1.875,8.338,0.000,25.073
32795,3.534,0.000,0.449,2.396,1.875,8.338,0.000,25.105
32843,3.534,0.000,0.449,2.396,1.875,8.338,0.000,25.057
32891,3.534,0.000,0.449,2.396,1.875,8.338,0.000,25.079
32939,3.535,0.000,0.449,2.396,1.875,8.338,0.000,25.030
32987,3.535,0.000,0.449,2.396,1.875,8.338,0.000,25.063
33035,3.535,0.000,0.449,2.396,1.875,8.338,0.000,25.069
33083,3.535,0.000,0.449,2.396,1.875,8.338,0.000,25.024
33131,3.535,0.000,0.449,2.396,1.875,8.338,0.000,25.025
33179,3.535,0.000,0.449,2.396,1.875,8.338,0.000,24.980
33227,3.535,0.000,0.449,2.396,1.875,8.338,0.000,25.007
33275,3.535,0.000,0.449,2.396,1.875,8.338,0.000,24.970
33323,3.536,0.000,0.449,2.396,1.875,8.338,0.000,25.002
33371,3.536,0.000,0.449,2.396,1.875,8.338,0.000,24.989
33419,3.536,0.000,0.449,2.396,1.875,8.338,0.000,24.993
33467,3.536,0.000,0.449,2.396,1.875,8.338,0.000,24.968
33515,3.536,0.000,0.449,2.396,1.875,8.338,0.000,25.010
33563,3.536,0.000,0.449,2.396,1.875,8.338,0.000,25.015
33611,3.536,0.000,0.449,2.396,1.875,8.338,0.000,24.992
33659,3.536,0.000,0.449,2.396,1.875,8.338,0.000,24.964
33707,3.536,0.000,0.449,2.396,1.875,8.338,0.000,24.935
33755,3.537,0.000,0.449,2.396,1.875,8.338,0.000,24.957
33803,3.537,0.000,0.449,2.396,1.875,8.338,0.000,24.991
33851,3.537,0.000,0.449,2.396,1.875,8.338,0.000,24.990
33899,3.537,0.000,0.449,2.396,1.875,8.338,0.000,24.941
33947,3.537,0.000,0.449,2.396,1.875,8.338,0.000,24.962
33995,3.537,0.000,0.449,2.396,1.875,8.338,0.000,24.990
34043,3.537,0.000,0.449,2.396,1.875,8.338,0.000,24.981
34091,3.537,0.000,0.449,2.396,1.875,8.338,0.000,24.953
34139,3.537,0.000,0.449,2.396,1.875,8.338,0.000,24.967
34187,3.537,0.000,0.449,2.396,1.875,8.338,0.000,24.964
34235,3.537,0.000,0.449,2.396,1.875,8.338,0.000,24.962
34283,3.537,0.000,0.449,2.396,1.875,8.338,0.000,24.977
34331,3.537,0.000,0.449,2.396,1.875,8.338,0.000,25.004
34379,3.537,0.000,0.449,2.396,1.875,8.338,0.000,24.957
34427,3.537,0.000,0.449,2.396,1.875,8.338,0.000,25.003
34475,3.538,0.000,0.449,2.396,1.875,8.338,0.000,24.964
34523,3.537,0.000,0.449,2.396,1.875,8.338,0.000,24.966
34571,3.538,0.000,0.449,2.396,1.875,8.338,0.000,24.928
34619,3.538,0.000,0.449,2.396,1.875,8.338,0.000,24.908
34667,3.538,0.000,0.449,2.396,1.875,8.338,0.000,24.968
34715,3.538,0.000,0.449,2.396,1.875,8.338,0.000,24.967
34763,3.538,0.000,0.449,2.396,1.875,8.338,0.000,24.922
34811,3.538,0.000,0.449,2.396,1.875,8.338,0.000,24.958
34859,3.538,0.000,0.449,2.396,1.875,8.338,0.000,24.973
34905,3.527,0.000,0.449,2.404,1.875,8.365,0.000,25.047
34951,3.539,0.000,0.455,2.404,1.899,8.365,0.000,25.090
34998,3.208,-3.350,0.455,2.433,1.899,8.459,-0.001,25.276
35046,3.162,-3.350,0.455,2.478,1.899,8.601,-0.001,25.745
35094,3.129,-3.350,0.455,2.523,1.899,8.741,-0.001,26.329
35142,3.106,-3.350,0.455,2.567,1.899,8.881,0.000,26.844
35190,3.083,-3.350,0.455,2.612,1.899,9.019,-0.001,27.417
35238,3.059,-3.350,0.455,2.657,1.899,9.156,0.000,27.845
35286,3.035,-3.350,0.455,2.701,1.899,9.292,0.000,28.320
35333,3.332,0.000,0.455,2.739,1.899,9.407,0.003,28.780
35381,3.379,0.000,0.455,2.739,1.899,9.407,0.000,28.561
35429,3.389,0.000,0.455,2.739,1.899,9.407,0.000,28.260
35477,3.394,0.000,0.455,2.739,1.899,9.407,0.000,28.014
35525,3.397,0.000,0.455,2.739,1.899,9.407,0.000,27.748
35573,3.402,0.000,0.455,2.739,1.899,9.407,0.000,27.497
35621,3.406,0.000,0.455,2.739,1.899,9.407,0.000,27.265
35669,3.411,0.000,0.455,2.739,1.899,9.407,0.000,27.082
35717,3.415,0.000,0.455,2.739,1.899,9.407,0.000,26.886
35765,3.418,0.000,0.455,2.739,1.899,9.407,0.000,26.667
35813,3.421,0.000,0.455,2.739,1.899,9.407,0.000,26.524
35861,3.423,0.000,0.455,2.739,1.899,9.407,0.000,26.356
35909,3.425,0.000,0.455,2.739,1.899,9.407,0.000,26.207
35957,3.427,0.000,0.455,2.739,1.899,9.407,0.000,26.095
36005,3.428,0.000,0.455,2.739,1.899,9.407,0.000,26.027
36053,3.429,0.000,0.455,2.739,1.899,9.407,0.000,25.910
36101,3.431,0.000,0.455,2.739,1.899,9.407,0.000,25.826
36149,3.431,0.000,0.455,2.739,1.899,9.407,0.000,25.740
36197,3.432,0.000,0.455,2.739,1.899,9.407,0.000,25.656
36245,3.433,0.000,0.455,2.739,1.899,9.407,0.000,25.601
36293,3.434,0.000,0.455,2.739,1.899,9.407,0.000,25.533
36341,3.434,0.000,0.455,2.739,1.899,9.407,0.000,25.486
36389,3.435,0.000,0.455,2.739,1.899,9.407,0.000,25.464
36437,3.435,0.000,0.455,2.739,1.899,9.407,0.000,25.405
36485,3.436,0.000,0.455,2.739,1.899,9.407,0.000,25.361
36533,3.436,0.000,0.455,2.739,1.899,9.407,0.000,25.348
36581,3.437,0.000,0.455,2.739,1.899,9.407,0.000,25.296
36629,3.437,0.000,0.455,2.739,1.899,9.407,0.000,25.259
36677,3.437,0.000,0.455,2.739,1.899,9.407,0.000,25.221
36725,3.437,0.000,0.455,2.739,1.899,9.407,0.000,25.234
36773,3.438,0.000,0.455,2.739,1.899,9.407,0.000,25.188
36821,3.438,0.000,0.455,2.739,1.899,9.407,0.000,25.173
36869,3.438,0.000,0.455,2.739,1.899,9.407,0.000,25.159
36917,3.438,0.000,0.455,2.739,1.899,9.407,0.000,25.172
36965,3.439,0.000,0.455,2.739,1.899,9.407,0.000,25.137
37013,3.439,0.000,0.455,2.739,1.899,9.407,0.000,25.116
37061,3.439,0.000,0.455,2.739,1.899,9.407,0.000,25.090
37109,3.439,0.000,0.455,2.739,1.899,9.407,0.000,25.098
37157,3.439,0.000,0.455,2.739,1.899,9.407,0.000,25.090
37205,3.439,0.000,0.455,2.739,1.899,9.407,0.000,25.099
37253,3.440,0.000,0.455,2.739,1.899,9.407,0.000,25.027
37301,3.440,0.000,0.455,2.739,1.899,9.407,0.000,25.038
37349,3.440,0.000,0.455,2.739,1.899,9.407,0.000,25.064
37397,3.440,0.000,0.455,2.739,1.899,9.407,0.000,25.114
37445,3.440,0.000,0.455,2.739,1.899,9.407,0.000,25.036
37493,3.440,0.000,0.455,2.739,1.899,9.407,0.000,25.066
37541,3.440,0.000,0.455,2.739,1.899,9.407,0.000,25.035
37589,3.440,0.000,0.455,2.739,1.899,9.407,0.000,25.036
37637,3.440,0.000,0.455,2.739,1.899,9.407,0.000,25.005
37685,3.440,0.000,0.455,2.739,1.899,9.407,0.000,25.100
37733,3.441,0.000,0.455,2.739,1.899,9.407,0.000,25.076
37781,3.441,0.000,0.455,2.739,1.899,9.407,0.000,25.020
37829,3.441,0.000,0.455,2.739,1.899,9.407,0.000,25.047
37877,3.441,0.000,0.455,2.739,1.899,9.407,0.000,25.052
37925,3.441,0.000,0.455,2.739,1.899,9.407,0.000,25.062
37973,3.441,0.000,0.455,2.739,1.899,9.407,0.000,25.058
38021,3.441,0.000,0.455,2.739,1.899,9.407,0.000,25.095
38069,3.441,0.000,0.455,2.739,1.899,9.407,0.000,25.065
38117,3.441,0.000,0.455,2.739,1.899,9.407,0.000,25.069
38165,3.441,0.000,0.455,2.739,1.899,9.407,0.000,25.039
38213,3.441,0.000,0.455,2.739,1.899,9.407,0.000,25.066
38261,3.441,0.000,0.455,2.739,1.899,9.407,0.000,25.053
38309,3.441,0.000,0.455,2.739,1.899,9.407,0.000,25.036
38357,3.442,0.000,0.455,2.739,1.899,9.407,0.000,25.098
38405,3.442,0.000,0.455,2.739,1.899,9.407,0.000,25.094
38453,3.442,0.000,0.455,2.739,1.899,9.407,0.000,25.045
38501,3.442,0.000,0.455,2.739,1.899,9.407,0.000,25.041
38549,3.442,0.000,0.455,2.739,1.899,9.407,0.000,25.067
38597,3.442,0.000,0.455,2.739,1.899,9.407,0.000,25.080
38645,3.442,0.000,0.455,2.739,1.899,9.407,0.000,25.061
38693,3.442,0.000,0.455,2.739,1.899,9.407,0.000,25.045
38741,3.442,0.000,0.455,2.739,1.899,9.407,0.000,25.052
38789,3.442,0.000,0.455,2.739,1.899,9.407,0.000,25.067
38837,3.442,0.000,0.455,2.739,1.899,9.407,0.000,25.069
38885,3.442,0.000,0.455,2.739,1.899,9.407,0.000,25.045
38932,3.147,-3.000,0.455,2.744,1.899,9.421,-0.004,25.071
38979,3.631,2.250,0.455,2.748,1.901,9.434,0.200,25.092
39026,3.442,0.000,0.461,2.748,1.921,9.434,0.000,25.168
39073,3.023,-3.350,0.461,2.790,1.921,9.563,-0.002,25.597
39121,2.964,-3.350,0.461,2.834,1.921,9.696,-0.001,26.357
39169,2.913,-3.350,0.461,2.879,1.921,9.827,-0.001,27.101
39217,2.857,-3.350,0.461,2.924,1.921,9.956,-0.001,27.790
39265,2.795,-3.350,0.461,2.968,1.921,10.083,-0.002,28.697
39313,2.724,-3.350,0.461,3.013,1.921,10.206,-0.002,29.579
39361,2.642,-3.350,0.461,3.058,1.921,10.326,-0.002,30.515
39408,3.237,0.000,0.461,3.083,1.921,10.392,0.002,31.256
39456,3.286,0.000,0.461,3.083,1.921,10.392,0.001,30.723
39504,3.303,0.000,0.461,3.083,1.921,10.392,0.000,30.161
39552,3.310,0.000,0.461,3.083,1.921,10.392,0.000,29.622
39600,3.314,0.000,0.461,3.083,1.921,10.392,0.000,29.145
39648,3.317,0.000,0.461,3.083,1.921,10.392,0.000,28.770
39696,3.318,0.000,0.461,3.083,1.921,10.392,0.000,28.387
39744,3.320,0.000,0.461,3.083,1.921,10.392,0.000,28.076
39792,3.321,0.000,0.461,3.083,1.921,10.392,0.000,27.724
39840,3.321,0.000,0.461,3.083,1.921,10.392,0.000,27.445
39888,3.322,0.000,0.461,3.083,1.921,10.392,0.000,27.210
39936,3.323,0.000,0.461,3.083,1.921,10.392,0.000,26.996
39984,3.323,0.000,0.461,3.083,1.921,10.392,0.000,26.848
40032,3.323,0.000,0.461,3.083,1.921,10.392,0.000,26.681
40080,3.324,0.000,0.461,3.083,1.921,10.392,0.000,26.476
40128,3.324,0.000,0.461,3.083,1.921,10.392,0.000,26.318
40176,3.324,0.000,0.461,3.083,1.921,10.392,0.000,26.199
40224,3.325,0.000,0.461,3.083,1.921,10.392,0.000,26.111
40272,3.325,0.000,0.461,3.083,1.921,10.392,0.000,26.012
40320,3.325,0.000,0.461,3.083,1.921,10.392,0.000,25.918
40368,3.325,0.000,0.461,3.083,1.921,10.392,0.000,25.806
40416,3.326,0.000,0.461,3.083,1.921,10.392,0.000,25.755
40464,3.326,0.000,0.461,3.083,1.921,10.392,0.000,25.648
40512,3.326,0.000,0.461,3.083,1.921,10.392,0.000,25.596
40560,3.326,0.000,0.461,3.083,1.921,10.392,0.000,25.525
40608,3.326,0.000,0.461,3.083,1.921,10.392,0.000,25.467
40656,3.326,0.000,0.461,3.083,1.921,10.392,0.000,25.470
40704,3.327,0.000,0.461,3.083,1.921,10.392,0.000,25.401
40752,3.327,0.000,0.461,3.083,1.921,10.392,0.000,25.371
40800,3.327,0.000,0.461,3.083,1.921,10.392,0.000,25.369
40848,3.327,0.000,0.461,3.083,1.921,10.392,0.000,25.283
40896,3.327,0.000,0.461,3.083,1.921,10.392,0.000,25.275
40944,3.327,0.000,0.461,3.083,1.921,10.392,0.000,25.274
40992,3.327,0.000,0.461,3.083,1.921,10.392,0.000,25.274
41040,3.327,0.000,0.461,3.083,1.921,10.392,0.000,25.232
41088,3.327,0.000,0.461,3.083,1.921,10.392,0.000,25.207
41136,3.328,0.000,0.461,3.083,1.921,10.392,0.000,25.178
41184,3.328,0.000,0.461,3.083,1.921,10.392,0.000,25.152
41232,3.328,0.000,0.461,3.083,1.921,10.392,0.000,25.170
41280,3.328,0.000,0.461,3.083,1.921,10.392,0.000,25.161
41328,3.328,0.000,0.461,3.083,1.921,10.392,0.000,25.172
41376,3.328,0.000,0.461,3.083,1.921,10.392,0.000,25.099
41424,3.328,0.000,0.461,3.083,1.921,10.392,0.000,25.089
41472,3.328,0.000,0.461,3.083,1.921,10.392,0.000,25.092
41520,3.328,0.000,0.461,3.083,1.921,10.392,0.000,25.065
41568,3.328,0.000,0.461,3.083,1.921,10.392,0.000,25.089
41616,3.328,0.000,0.461,3.083,1.921,10.392,0.000,25.138
41664,3.328,0.000,0.461,3.083,1.921,10.392,0.000,25.077
41712,3.328,0.000,0.461,3.083,1.921,10.392,0.000,25.083
41760,3.329,0.000,0.461,3.083,1.921,10.392,0.000,25.078
41808,3.329,0.000,0.461,3.083,1.921,10.392,0.000,25.090
41856,3.329,0.000,0.461,3.083,1.921,10.392,0.000,25.092
41904,3.329,0.000,0.461,3.083,1.921,10.392,0.000,25.106
41952,3.329,0.000,0.461,3.083,1.921,10.392,0.000,25.089
42000,3.329,0.000,0.461,3.083,1.921,10.392,0.000,25.102
42048,3.329,0.000,0.461,3.083,1.921,10.392,0.000,25.112
42096,3.329,0.000,0.461,3.083,1.921,10.392,0.000,25.060
42144,3.329,0.000,0.461,3.083,1.921,10.392,0.000,25.068
42192,3.329,0.000,0.461,3.083,1.921,10.392,0.000,25.037
42240,3.329,0.000,0.461,3.083,1.921,10.392,0.000,25.064
42288,3.329,0.000,0.461,3.083,1.921,10.392,0.000,25.034
42336,3.329,0.000,0.461,3.083,1.921,10.392,0.000,25.043
42384,3.329,0.000,0.461,3.083,1.921,10.392,0.000,25.091
42432,3.329,0.000,0.461,3.083,1.921,10.392,0.000,25.035
42480,3.329,0.000,0.461,3.083,1.921,10.392,0.000,25.031
42528,3.329,0.000,0.461,3.083,1.921,10.392,0.000,25.059
42576,3.329,0.000,0.461,3.083,1.921,10.392,0.000,24.998
42624,3.329,0.000,0.461,3.083,1.921,10.392,0.000,24.996
42672,3.330,0.000,0.461,3.083,1.921,10.392,0.000,25.006
42720,3.330,0.000,0.461,3.083,1.921,10.392,0.000,25.023
42768,3.330,0.000,0.461,3.083,1.921,10.392,0.000,25.013
42816,3.330,0.000,0.461,3.083,1.921,10.392,0.000,25.034
42864,3.330,0.000,0.461,3.083,1.921,10.392,0.000,25.002
42912,3.330,0.000,0.461,3.083,1.921,10.392,0.000,24.994
42960,3.330,0.000,0.461,3.083,1.921,10.392,0.000,25.048
43006,3.285,0.000,0.461,3.091,1.921,10.415,0.005,25.142
43052,3.347,0.000,0.467,3.091,1.944,10.415,-0.003,25.278
43099,2.612,-3.350,0.467,3.102,1.944,10.443,-0.016,25.304
43108,2.495,-3.350,0.467,3.110,1.944,10.465,-0.012,25.583