File: data/T25/HPPC/5.csv
time_s,voltage_v,current_a,chargecapacity_ah,dischargecapacity_ah,charge_energy_wh,discharge_energy_wh,voltagedot_v_per_s,temp_degc
1,4.032,0,0,0,0,0,0,24.861
41,4.032,0,0,0,0,0,0,24.826
80,4.138,1.625,0.009,0,0.037,0,0.001,24.839
120,4.153,1.625,0.027,0,0.112,0,0,24.992
160,4.163,1.625,0.045,0,0.187,0,0,25.152
200,4.171,1.625,0.063,0,0.263,0,0,25.257
240,4.179,1.625,0.081,0,0.338,0,0,25.405
280,4.187,1.625,0.099,0,0.413,0,0,25.532
320,4.194,1.625,0.117,0,0.489,0,0,25.584
359,4.2,1.612,0.135,0,0.564,0,0,25.69
399,4.2,1.506,0.152,0,0.636,0,0,25.772
439,4.2,1.416,0.169,0,0.704,0,0,25.873
479,4.2,1.333,0.184,0,0.768,0,0,25.838
519,4.2,1.254,0.198,0,0.829,0,0,25.965
559,4.2,1.179,0.212,0,0.885,0,0,25.955
599,4.2,1.109,0.224,0,0.939,0,0,25.972
639,4.2,1.041,0.236,0,0.989,0,0,25.978
679,4.2,0.977,0.248,0,1.036,0,0,25.979
719,4.2,0.916,0.258,0,1.08,0,0,25.952
759,4.2,0.858,0.268,0,1.122,0,0,25.948
799,4.2,0.803,0.277,0,1.16,0,0,25.943
839,4.2,0.751,0.286,0,1.196,0,0,25.912
879,4.2,0.703,0.294,0,1.23,0,0,25.864
919,4.2,0.657,0.301,0,1.262,0,0,25.857
959,4.2,0.615,0.308,0,1.292,0,0,25.833
999,4.2,0.575,0.315,0,1.319,0,0,25.776
1039,4.2,0.537,0.321,0,1.345,0,0,25.714
1079,4.2,0.503,0.327,0,1.37,0,0,25.679
1119,4.2,0.471,0.332,0,1.392,0,0,25.661
1159,4.2,0.441,0.338,0,1.414,0,0,25.628
1199,4.2,0.413,0.342,0,1.434,0,0,25.576
1239,4.2,0.388,0.347,0,1.452,0,0,25.552
1279,4.2,0.363,0.351,0,1.47,0,0,25.548
1319,4.2,0.341,0.355,0,1.486,0,0,25.47
1359,4.2,0.321,0.358,0,1.502,0,0,25.394
1399,4.2,0.302,0.362,0,1.516,0,0,25.392
1439,4.2,0.284,0.365,0,1.53,0,0,25.334
1479,4.2,0.267,0.368,0,1.543,0,0,25.352
1519,4.2,0.252,0.371,0,1.555,0,0,25.288
1559,4.2,0.238,0.374,0,1.566,0,0,25.269
1599,4.2,0.225,0.376,0,1.577,0,0,25.22
1639,4.2,0.212,0.379,0,1.587,0,0,25.191
1679,4.2,0.2,0.381,0,1.597,0,0,25.195
1719,4.2,0.19,0.383,0,1.606,0,0,25.169
1759,4.2,0.18,0.385,0,1.614,0,0,25.157
1799,4.2,0.171,0.387,0,1.623,0,0,25.129
1839,4.2,0.162,0.389,0,1.63,0,0,25.14
1879,4.2,0.153,0.391,0,1.638,0,0,25.098
1919,4.2,0.146,0.393,0,1.645,0,0,25.07
1959,4.2,0.138,0.394,0,1.651,0,0,25.036
1999,4.2,0.131,0.396,0,1.658,0,0,25.011
2039,4.2,0.125,0.397,0,1.664,0,0,25.031
2079,4.2,0.12,0.398,0,1.669,0,0,25.054
2119,4.2,0.114,0.4,0,1.675,0,0,24.989
2159,4.2,0.108,0.401,0,1.68,0,0,25.019
2199,4.2,0.104,0.402,0,1.685,0,0,24.975
2239,4.2,0.099,0.403,0,1.69,0,0,24.981
2279,4.2,0.095,0.404,0,1.694,0,0,24.933
2319,4.2,0.09,0.405,0,1.698,0,0,24.946
2359,4.2,0.087,0.406,0,1.702,0,0,24.947
2399,4.2,0.082,0.407,0,1.706,0,0,24.899
2439,4.2,0.079,0.408,0,1.71,0,0,24.92
2479,4.2,0.076,0.409,0,1.714,0,0,24.905
2519,4.2,0.073,0.41,0,1.717,0,0,24.945
2559,4.2,0.07,0.411,0,1.721,0,0,24.896
2599,4.2,0.067,0.411,0,1.724,0,0,24.877
2639,4.194,0,0.412,0,1.726,0,0,24.905
2679,4.193,0,0.412,0,1.726,0,0,24.879
2719,4.192,0,0.412,0,1.726,0,0,24.858
2759,4.192,0,0.412,0,1.726,0,0,24.872
2799,4.191,0,0.412,0,1.726,0,0,24.837
2839,4.191,0,0.412,0,1.726,0,0,24.871
2879,4.19,0,0.412,0,1.726,0,0,24.878
2919,4.19,0,0.412,0,1.726,0,0,24.853
2959,4.19,0,0.412,0,1.726,0,0,24.842
2999,4.189,0,0.412,0,1.726,0,0,24.825
3039,4.189,0,0.412,0,1.726,0,0,24.798
3079,4.189,0,0.412,0,1.726,0,0,24.8
3119,4.189,0,0.412,0,1.726,0,0,24.783
3159,4.188,0,0.412,0,1.726,0,0,24.865
3199,4.188,0,0.412,0,1.726,0,0,24.827
3239,4.188,0,0.412,0,1.726,0,0,24.83
3279,4.188,0,0.412,0,1.726,0,0,24.823
3319,4.188,0,0.412,0,1.726,0,0,24.799
3359,4.187,0,0.412,0,1.726,0,0,24.816
3399,4.187,0,0.412,0,1.726,0,0,24.784
3439,4.187,0,0.412,0,1.726,0,0,24.791
3479,4.187,0,0.412,0,1.726,0,0,24.796
3519,4.187,0,0.412,0,1.726,0,0,24.815
3559,4.187,0,0.412,0,1.726,0,0,24.782
3599,4.186,0,0.412,0,1.726,0,0,24.802
3639,4.186,0,0.412,0,1.726,0,0,24.798
3679,4.186,0,0.412,0,1.726,0,0,24.806
3719,4.186,0,0.412,0,1.726,0,0,24.799
3759,4.186,0,0.412,0,1.726,0,0,24.796
3799,4.186,0,0.412,0,1.726,0,0,24.82
3839,4.186,0,0.412,0,1.726,0,0,24.783
3879,4.186,0,0.412,0,1.726,0,0,24.809
3919,4.186,0,0.412,0,1.726,0,0,24.752
3959,4.185,0,0.412,0,1.726,0,0,24.765
3999,4.185,0,0.412,0,1.726,0,0,24.77
4039,4.185,0,0.412,0,1.726,0,0,24.773
4079,4.185,0,0.412,0,1.726,0,0,24.763
4119,4.185,0,0.412,0,1.726,0,0,24.784
4159,4.185,0,0.412,0,1.726,0,0,24.756
4199,4.185,0,0.412,0,1.726,0,0,24.773
4239,4.185,0,0.412,0,1.726,0,0,24.783
4279,4.185,0,0.412,0,1.726,0,0,24.784
4319,4.185,0,0.412,0,1.726,0,0,24.776
4359,4.185,0,0.412,0,1.726,0,0,24.786
4399,4.185,0,0.412,0,1.726,0,0,24.784
4439,4.185,0,0.412,0,1.726,0,0,24.744
4479,4.184,0,0.412,0,1.726,0,0,24.736
4519,4.184,0,0.412,0,1.726,0,0,24.766
4559,4.184,0,0.412,0,1.726,0,0,24.786
4599,4.184,0,0.412,0,1.726,0,0,24.776
4639,4.184,0,0.412,0,1.726,0,0,24.772
4679,4.184,0,0.412,0,1.726,0,0,24.753
4719,4.184,0,0.412,0,1.726,0,0,24.733
4759,4.184,0,0.412,0,1.726,0,0,24.779
4799,4.184,0,0.412,0,1.726,0,0,24.767
4839,4.184,0,0.412,0,1.726,0,0,24.823
4879,4.184,0,0.412,0,1.726,0,0,24.766
4919,4.184,0,0.412,0,1.726,0,0,24.727
4959,4.184,0,0.412,0,1.726,0,0,24.76
4999,4.184,0,0.412,0,1.726,0,0,24.794
5039,4.184,0,0.412,0,1.726,0,0,24.733
5079,4.184,0,0.412,0,1.726,0,0,24.805
5119,4.184,0,0.412,0,1.726,0,0,24.745
5159,4.184,0,0.412,0,1.726,0,0,24.766
5199,4.184,0,0.412,0,1.726,0,0,24.736
5239,4.184,0,0.412,0,1.726,0,0,24.78
5279,4.184,0,0.412,0,1.726,0,0,24.732
5319,4.183,0,0.412,0,1.726,0,0,24.741
5359,4.183,0,0.412,0,1.726,0,0,24.735
5399,4.183,0,0.412,0,1.726,0,0,24.813
5439,4.183,0,0.412,0,1.726,0,0,24.776
5479,4.183,0,0.412,0,1.726,0,0,24.743
5519,4.183,0,0.412,0,1.726,0,0,24.765
5559,4.183,0,0.412,0,1.726,0,0,24.749
5599,4.183,0,0.412,0,1.726,0,0,24.751
5639,4.183,0,0.412,0,1.726,0,0,24.779
5679,4.183,0,0.412,0,1.726,0,0,24.794
5719,4.183,0,0.412,0,1.726,0,0,24.761
5759,4.183,0,0.412,0,1.726,0,0,24.771
5799,4.183,0,0.412,0,1.726,0,0,24.771
5839,4.183,0,0.412,0,1.726,0,0,24.771
5879,4.183,0,0.412,0,1.726,0,0,24.743
5919,4.183,0,0.412,0,1.726,0,0,24.763
5959,4.183,0,0.412,0,1.726,0,0,24.734
5999,4.183,0,0.412,0,1.726,0,0,24.774
6039,4.183,0,0.412,0,1.726,0,0,24.763
6079,4.183,0,0.412,0,1.726,0,0,24.796
6119,4.183,0,0.412,0,1.726,0,0,24.746
6159,4.183,0,0.412,0,1.726,0,0,24.751
6199,4.183,0,0.412,0,1.726,0,0,24.818
6238,3.925,-3.35,0.412,0.012,1.726,0.048,-0.002,24.806
6278,3.89,-3.35,0.412,0.049,1.726,0.193,-0.001,25.268
6318,3.872,-3.35,0.412,0.087,1.726,0.337,0,25.681
6358,3.86,-3.35,0.412,0.124,1.726,0.481,0,26.076
6398,3.85,-3.35,0.412,0.161,1.726,0.625,0,26.495
6438,3.84,-3.35,0.412,0.198,1.726,0.768,0,26.843
6478,3.83,-3.35,0.412,0.235,1.726,0.911,0,27.207
6518,3.82,-3.35,0.412,0.273,1.726,1.053,0,27.464
6558,3.809,-3.35,0.412,0.31,1.726,1.195,0,27.75
6598,3.993,0,0.412,0.335,1.726,1.291,0.001,27.993
6638,4.019,0,0.412,0.335,1.726,1.291,0,27.875
6678,4.031,0,0.412,0.335,1.726,1.291,0,27.68
6718,4.039,0,0.412,0.335,1.726,1.291,0,27.473
6758,4.044,0,0.412,0.335,1.726,1.291,0,27.287
6798,4.047,0,0.412,0.335,1.726,1.291,0,27.135
6838,4.049,0,0.412,0.335,1.726,1.291,0,26.953
6878,4.05,0,0.412,0.335,1.726,1.291,0,26.775
6918,4.051,0,0.412,0.335,1.726,1.291,0,26.625
6958,4.052,0,0.412,0.335,1.726,1.291,0,26.442
6998,4.052,0,0.412,0.335,1.726,1.291,0,26.331
7038,4.053,0,0.412,0.335,1.726,1.291,0,26.208
7078,4.053,0,0.412,0.335,1.726,1.291,0,26.111
7118,4.054,0,0.412,0.335,1.726,1.291,0,25.985
7158,4.054,0,0.412,0.335,1.726,1.291,0,25.889
7198,4.054,0,0.412,0.335,1.726,1.291,0,25.863
7238,4.054,0,0.412,0.335,1.726,1.291,0,25.771
7278,4.054,0,0.412,0.335,1.726,1.291,0,25.666
7318,4.055,0,0.412,0.335,1.726,1.291,0,25.642
7358,4.055,0,0.412,0.335,1.726,1.291,0,25.545
7398,4.055,0,0.412,0.335,1.726,1.291,0,25.504
7438,4.055,0,0.412,0.335,1.726,1.291,0,25.393
7478,4.055,0,0.412,0.335,1.726,1.291,0,25.363
7518,4.055,0,0.412,0.335,1.726,1.291,0,25.334
7558,4.055,0,0.412,0.335,1.726,1.291,0,25.301
7598,4.055,0,0.412,0.335,1.726,1.291,0,25.218
7638,4.056,0,0.412,0.335,1.726,1.291,0,25.181
7678,4.056,0,0.412,0.335,1.726,1.291,0,25.137
7718,4.056,0,0.412,0.335,1.726,1.291,0,25.113
7758,4.056,0,0.412,0.335,1.726,1.291,0,25.098
7798,4.056,0,0.412,0.335,1.726,1.291,0,25.092
7838,4.056,0,0.412,0.335,1.726,1.291,0,25.061
7878,4.056,0,0.412,0.335,1.726,1.291,0,25.009
7918,4.056,0,0.412,0.335,1.726,1.291,0,25.008
7958,4.056,0,0.412,0.335,1.726,1.291,0,25
7998,4.056,0,0.412,0.335,1.726,1.291,0,25.026
8038,4.056,0,0.412,0.335,1.726,1.291,0,24.943
8078,4.056,0,0.412,0.335,1.726,1.291,0,24.97
8118,4.056,0,0.412,0.335,1.726,1.291,0,24.941
8158,4.056,0,0.412,0.335,1.726,1.291,0,24.917
8198,4.056,0,0.412,0.335,1.726,1.291,0,24.943
8238,4.056,0,0.412,0.335,1.726,1.291,0,24.884
8278,4.056,0,0.412,0.335,1.726,1.291,0,24.884
8318,4.057,0,0.412,0.335,1.726,1.291,0,24.851
8358,4.057,0,0.412,0.335,1.726,1.291,0,24.877
8398,4.056,0,0.412,0.335,1.726,1.291,0,24.882
8438,4.057,0,0.412,0.335,1.726,1.291,0,24.869
8478,4.057,0,0.412,0.335,1.726,1.291,0,24.813
8518,4.057,0,0.412,0.335,1.726,1.291,0,24.839
8558,4.057,0,0.412,0.335,1.726,1.291,0,24.799
8598,4.057,0,0.412,0.335,1.726,1.291,0,24.816
8638,4.057,0,0.412,0.335,1.726,1.291,0,24.823
8678,4.057,0,0.412,0.335,1.726,1.291,0,24.798
8718,4.057,0,0.412,0.335,1.726,1.291,0,24.799
8758,4.057,0,0.412,0.335,1.726,1.291,0,24.798
8798,4.057,0,0.412,0.335,1.726,1.291,0,24.779
8838,4.057,0,0.412,0.335,1.726,1.291,0,24.803
8878,4.057,0,0.412,0.335,1.726,1.291,0,24.785
8918,4.057,0,0.412,0.335,1.726,1.291,0,24.755
8958,4.057,0,0.412,0.335,1.726,1.291,0,24.777
8998,4.057,0,0.412,0.335,1.726,1.291,0,24.801
9038,4.057,0,0.412,0.335,1.726,1.291,0,24.864
9078,4.057,0,0.412,0.335,1.726,1.291,0,24.807
9118,4.057,0,0.412,0.335,1.726,1.291,0,24.826
9158,4.057,0,0.412,0.335,1.726,1.291,0,24.852
9198,4.057,0,0.412,0.335,1.726,1.291,0,24.867
9238,4.057,0,0.412,0.335,1.726,1.291,0,24.885
9278,4.057,0,0.412,0.335,1.726,1.291,0,24.827
9318,4.057,0,0.412,0.335,1.726,1.291,0,24.827
9358,4.057,0,0.412,0.335,1.726,1.291,0,24.828
9398,4.057,0,0.412,0.335,1.726,1.291,0,24.844
9438,4.057,0,0.412,0.335,1.726,1.291,0,24.823
9478,4.057,0,0.412,0.335,1.726,1.291,0,24.821
9518,4.057,0,0.412,0.335,1.726,1.291,0,24.872
9558,4.057,0,0.412,0.335,1.726,1.291,0,24.834
9598,4.057,0,0.412,0.335,1.726,1.291,0,24.804
9638,4.057,0,0.412,0.335,1.726,1.291,0,24.844
9678,4.057,0,0.412,0.335,1.726,1.291,0,24.826
9718,4.057,0,0.412,0.335,1.726,1.291,0,24.826
9758,4.057,0,0.412,0.335,1.726,1.291,0,24.847
9798,4.057,0,0.412,0.335,1.726,1.291,0,24.834
9838,4.057,0,0.412,0.335,1.726,1.291,0,24.845
9878,4.057,0,0.412,0.335,1.726,1.291,0,24.834
9918,4.057,0,0.412,0.335,1.726,1.291,0,24.826
9958,4.057,0,0.412,0.335,1.726,1.291,0,24.807
9998,4.057,0,0.412,0.335,1.726,1.291,0,24.842
10038,4.057,0,0.412,0.335,1.726,1.291,0,24.844
10078,4.057,0,0.412,0.335,1.726,1.291,0,24.804
10118,4.057,0,0.412,0.335,1.726,1.291,0,24.877
10158,4.057,0,0.412,0.335,1.726,1.291,0,24.759
10196,3.865,-3,0.412,0.343,1.726,1.323,-0.002,24.831
10236,4.048,0,0.412,0.343,1.726,1.324,0,24.884
10274,4.059,0,0.418,0.343,1.752,1.324,0,24.968
10313,3.819,-3.35,0.418,0.369,1.752,1.42,-0.001,25.034
10353,3.79,-3.35,0.418,0.406,1.752,1.562,-0.001,25.356
10393,3.77,-3.35,0.418,0.443,1.752,1.702,0,25.773
10433,3.755,-3.35,0.418,0.48,1.752,1.842,0,26.098
10473,3.741,-3.35,0.418,0.517,1.752,1.982,0,26.479
10513,3.728,-3.35,0.418,0.555,1.752,2.121,0,26.799
10553,3.716,-3.35,0.418,0.592,1.752,2.259,0,27.127
10593,3.703,-3.35,0.418,0.629,1.752,2.397,0,27.364
10633,3.692,-3.35,0.418,0.666,1.752,2.535,0,27.651
10672,3.885,0,0.418,0.678,1.752,2.58,0.001,27.743
10712,3.901,0,0.418,0.678,1.752,2.58,0,27.597
10752,3.909,0,0.418,0.678,1.752,2.58,0,27.393
10792,3.913,0,0.418,0.678,1.752,2.58,0,27.26
10832,3.915,0,0.418,0.678,1.752,2.58,0,27.155
10872,3.917,0,0.418,0.678,1.752,2.58,0,26.995
10912,3.919,0,0.418,0.678,1.752,2.58,0,26.822
10952,3.92,0,0.418,0.678,1.752,2.58,0,26.746
10992,3.921,0,0.418,0.678,1.752,2.58,0,26.619
11032,3.923,0,0.418,0.678,1.752,2.58,0,26.52
11072,3.924,0,0.418,0.678,1.752,2.58,0,26.419
11112,3.926,0,0.418,0.678,1.752,2.58,0,26.273
11152,3.927,0,0.418,0.678,1.752,2.58,0,26.229
11192,3.929,0,0.418,0.678,1.752,2.58,0,26.107
11232,3.931,0,0.418,0.678,1.752,2.58,0,26.03
11272,3.933,0,0.418,0.678,1.752,2.58,0,25.928
11312,3.934,0,0.418,0.678,1.752,2.58,0,25.871
11352,3.936,0,0.418,0.678,1.752,2.58,0,25.768
11392,3.937,0,0.418,0.678,1.752,2.58,0,25.681
11432,3.938,0,0.418,0.678,1.752,2.58,0,25.611
11472,3.939,0,0.418,0.678,1.752,2.58,0,25.571
11512,3.939,0,0.418,0.678,1.752,2.58,0,25.526
11552,3.94,0,0.418,0.678,1.752,2.58,0,25.44
11592,3.94,0,0.418,0.678,1.752,2.58,0,25.405
11632,3.94,0,0.418,0.678,1.752,2.58,0,25.335
11672,3.94,0,0.418,0.678,1.752,2.58,0,25.275
11712,3.941,0,0.418,0.678,1.752,2.58,0,25.261
11752,3.941,0,0.418,0.678,1.752,2.58,0,25.242
11792,3.941,0,0.418,0.678,1.752,2.58,0,25.1
11832,3.941,0,0.418,0.678,1.752,2.58,0,25.14
11872,3.941,0,0.418,0.678,1.752,2.58,0,25.105
11912,3.941,0,0.418,0.678,1.752,2.58,0,25.091
11952,3.941,0,0.418,0.678,1.752,2.58,0,25.041
11992,3.941,0,0.418,0.678,1.752,2.58,0,25.042
12032,3.941,0,0.418,0.678,1.752,2.58,0,24.991
12072,3.941,0,0.418,0.678,1.752,2.58,0,24.918
12112,3.941,0,0.418,0.678,1.752,2.58,0,24.918
12152,3.941,0,0.418,0.678,1.752,2.58,0,24.935
12192,3.942,0,0.418,0.678,1.752,2.58,0,24.835
12232,3.942,0,0.418,0.678,1.752,2.58,0,24.904
12272,3.942,0,0.418,0.678,1.752,2.58,0,24.844
12312,3.942,0,0.418,0.678,1.752,2.58,0,24.886
12352,3.942,0,0.418,0.678,1.752,2.58,0,24.877
12392,3.942,0,0.418,0.678,1.752,2.58,0,24.868
12432,3.942,0,0.418,0.678,1.752,2.58,0,24.899
12472,3.942,0,0.418,0.678,1.752,2.58,0,24.849
12512,3.942,0,0.418,0.678,1.752,2.58,0,24.839
12552,3.942,0,0.418,0.678,1.752,2.58,0,24.83
12592,3.942,0,0.418,0.678,1.752,2.58,0,24.858
12632,3.942,0,0.418,0.678,1.752,2.58,0,24.843
12672,3.942,0,0.418,0.678,1.752,2.58,0,24.835
12712,3.942,0,0.418,0.678,1.752,2.58,0,24.839
12752,3.942,0,0.418,0.678,1.752,2.58,0,24.829
12792,3.942,0,0.418,0.678,1.752,2.58,0,24.814
12832,3.942,0,0.418,0.678,1.752,2.58,0,24.794
12872,3.942,0,0.418,0.678,1.752,2.58,0,24.759
12912,3.942,0,0.418,0.678,1.752,2.58,0,24.764
12952,3.942,0,0.418,0.678,1.752,2.58,0,24.763
12992,3.942,0,0.418,0.678,1.752,2.58,0,24.776
13032,3.942,0,0.418,0.678,1.752,2.58,0,24.763
13072,3.942,0,0.418,0.678,1.752,2.58,0,24.817
13112,3.942,0,0.418,0.678,1.752,2.58,0,24.767
13152,3.942,0,0.418,0.678,1.752,2.58,0,24.773
13192,3.942,0,0.418,0.678,1.752,2.58,0,24.782
13232,3.942,0,0.418,0.678,1.752,2.58,0,24.749
13272,3.942,0,0.418,0.678,1.752,2.58,0,24.756
13312,3.942,0,0.418,0.678,1.752,2.58,0,24.75
13352,3.942,0,0.418,0.678,1.752,2.58,0,24.757
13392,3.942,0,0.418,0.678,1.752,2.58,0,24.759
13432,3.942,0,0.418,0.678,1.752,2.58,0,24.761
13472,3.943,0,0.418,0.678,1.752,2.58,0,24.774
13512,3.943,0,0.418,0.678,1.752,2.58,0,24.707
13552,3.943,0,0.418,0.678,1.752,2.58,0,24.734
13592,3.943,0,0.418,0.678,1.752,2.58,0,24.751
13632,3.943,0,0.418,0.678,1.752,2.58,0,24.734
13672,3.943,0,0.418,0.678,1.752,2.58,0,24.737
13712,3.943,0,0.418,0.678,1.752,2.58,0,24.768
13752,3.943,0,0.418,0.678,1.752,2.58,0,24.75
13792,3.943,0,0.418,0.678,1.752,2.58,0,24.752
13832,3.943,0,0.418,0.678,1.752,2.58,0,24.743
13872,3.943,0,0.418,0.678,1.752,2.58,0,24.771
13912,3.943,0,0.418,0.678,1.752,2.58,0,24.756
13952,3.943,0,0.418,0.678,1.752,2.58,0,24.737
13992,3.943,0,0.418,0.678,1.752,2.58,0,24.752
14032,3.943,0,0.418,0.678,1.752,2.58,0,24.708
14072,3.943,0,0.418,0.678,1.752,2.58,0,24.764
14112,3.943,0,0.418,0.678,1.752,2.58,0,24.711
14152,3.943,0,0.418,0.678,1.752,2.58,0,24.741
14192,3.943,0,0.418,0.678,1.752,2.58,0,24.727
14232,3.943,0,0.418,0.678,1.752,2.58,0,24.783
14270,3.926,0,0.418,0.687,1.752,2.611,0.001,24.811
14308,3.953,0,0.424,0.687,1.777,2.611,-0.002,24.837
14347,3.77,-3.35,0.424,0.688,1.777,2.615,-0.003,24.837
14387,3.7,-3.35,0.424,0.725,1.777,2.753,-0.001,25.079
14427,3.68,-3.35,0.424,0.762,1.777,2.891,0,25.38
14467,3.665,-3.35,0.424,0.799,1.777,3.028,0,25.737
14507,3.652,-3.35,0.424,0.837,1.777,3.164,0,26.079
14547,3.638,-3.35,0.424,0.874,1.777,3.299,0,26.366
14587,3.626,-3.35,0.424,0.911,1.777,3.435,0,26.641
14627,3.614,-3.35,0.424,0.948,1.777,3.569,0,26.951
14667,3.603,-3.35,0.424,0.986,1.777,3.704,0,27.24
14706,3.591,-3.35,0.424,1.022,1.777,3.834,0,27.502
14746,3.797,0,0.424,1.022,1.777,3.834,0,27.509
14786,3.811,0,0.424,1.022,1.777,3.834,0,27.358
14826,3.818,0,0.424,1.022,1.777,3.834,0,27.189
14866,3.821,0,0.424,1.022,1.777,3.834,0,27.04
14906,3.824,0,0.424,1.022,1.777,3.834,0,26.87
14946,3.826,0,0.424,1.022,1.777,3.834,0,26.769
14986,3.827,0,0.424,1.022,1.777,3.834,0,26.664
15026,3.828,0,0.424,1.022,1.777,3.834,0,26.546
15066,3.829,0,0.424,1.022,1.777,3.834,0,26.416
15106,3.83,0,0.424,1.022,1.777,3.834,0,26.39
15146,3.831,0,0.424,1.022,1.777,3.834,0,26.284
15186,3.831,0,0.424,1.022,1.777,3.834,0,26.198
15226,3.832,0,0.424,1.022,1.777,3.834,0,26.133
15266,3.832,0,0.424,1.022,1.777,3.834,0,26.011
15306,3.833,0,0.424,1.022,1.777,3.834,0,25.996
15346,3.833,0,0.424,1.022,1.777,3.834,0,25.898
15386,3.834,0,0.424,1.022,1.777,3.834,0,25.815
15426,3.834,0,0.424,1.022,1.777,3.834,0,25.784
15466,3.835,0,0.424,1.022,1.777,3.834,0,25.68
15506,3.835,0,0.424,1.022,1.777,3.834,0,25.687
15546,3.836,0,0.424,1.022,1.777,3.834,0,25.655
15586,3.836,0,0.424,1.022,1.777,3.834,0,25.605
15626,3.837,0,0.424,1.022,1.777,3.834,0,25.517
15666,3.838,0,0.424,1.022,1.777,3.834,0,25.534
15706,3.838,0,0.424,1.022,1.777,3.834,0,25.467
15746,3.839,0,0.424,1.022,1.777,3.834,0,25.432
15786,3.84,0,0.424,1.022,1.777,3.834,0,25.405
15826,3.841,0,0.424,1.022,1.777,3.834,0,25.373
15866,3.842,0,0.424,1.022,1.777,3.834,0,25.334
15906,3.843,0,0.424,1.022,1.777,3.834,0,25.295
15946,3.844,0,0.424,1.022,1.777,3.834,0,25.3
15986,3.845,0,0.424,1.022,1.777,3.834,0,25.233
16026,3.846,0,0.424,1.022,1.777,3.834,0,25.242
16066,3.847,0,0.424,1.022,1.777,3.834,0,25.181
16106,3.848,0,0.424,1.022,1.777,3.834,0,25.142
16146,3.849,0,0.424,1.022,1.777,3.834,0,25.146
16186,3.85,0,0.424,1.022,1.777,3.834,0,25.079
16226,3.851,0,0.424,1.022,1.777,3.834,0,25.082
16266,3.852,0,0.424,1.022,1.777,3.834,0,25.045
16306,3.853,0,0.424,1.022,1.777,3.834,0,25.069
16346,3.853,0,0.424,1.022,1.777,3.834,0,25.033
16386,3.854,0,0.424,1.022,1.777,3.834,0,24.988
16426,3.854,0,0.424,1.022,1.777,3.834,0,24.984
16466,3.855,0,0.424,1.022,1.777,3.834,0,24.959
16506,3.855,0,0.424,1.022,1.777,3.834,0,24.912
16546,3.855,0,0.424,1.022,1.777,3.834,0,24.921
16586,3.855,0,0.424,1.022,1.777,3.834,0,24.923
16626,3.855,0,0.424,1.022,1.777,3.834,0,24.907
16666,3.856,0,0.424,1.022,1.777,3.834,0,24.887
16706,3.856,0,0.424,1.022,1.777,3.834,0,24.88
16746,3.856,0,0.424,1.022,1.777,3.834,0,24.868
16786,3.856,0,0.424,1.022,1.777,3.834,0,24.881
16826,3.856,0,0.424,1.022,1.777,3.834,0,24.89
16866,3.856,0,0.424,1.022,1.777,3.834,0,24.843
16906,3.856,0,0.424,1.022,1.777,3.834,0,24.825
16946,3.856,0,0.424,1.022,1.777,3.834,0,24.84
16986,3.856,0,0.424,1.022,1.777,3.834,0,24.859
17026,3.856,0,0.424,1.022,1.777,3.834,0,24.84
17066,3.856,0,0.424,1.022,1.777,3.834,0,24.826
17106,3.857,0,0.424,1.022,1.777,3.834,0,24.809
17146,3.857,0,0.424,1.022,1.777,3.834,0,24.816
17186,3.857,0,0.424,1.022,1.777,3.834,0,24.778
17226,3.857,0,0.424,1.022,1.777,3.834,0,24.819
17266,3.857,0,0.424,1.022,1.777,3.834,0,24.797
17306,3.857,0,0.424,1.022,1.777,3.834,0,24.819
17346,3.857,0,0.424,1.022,1.777,3.834,0,24.789
17386,3.857,0,0.424,1.022,1.777,3.834,0,24.791
17426,3.857,0,0.424,1.022,1.777,3.834,0,24.814
17466,3.857,0,0.424,1.022,1.777,3.834,0,24.82
17506,3.857,0,0.424,1.022,1.777,3.834,0,24.774
17546,3.857,0,0.424,1.022,1.777,3.834,0,24.853
17586,3.857,0,0.424,1.022,1.777,3.834,0,24.739
17626,3.857,0,0.424,1.022,1.777,3.834,0,24.756
17666,3.857,0,0.424,1.022,1.777,3.834,0,24.776
17706,3.857,0,0.424,1.022,1.777,3.834,0,24.75
17746,3.857,0,0.424,1.022,1.777,3.834,0,24.78
17786,3.857,0,0.424,1.022,1.777,3.834,0,24.78
17826,3.857,0,0.424,1.022,1.777,3.834,0,24.713
17866,3.857,0,0.424,1.022,1.777,3.834,0,24.776
17906,3.857,0,0.424,1.022,1.777,3.834,0,24.776
17946,3.857,0,0.424,1.022,1.777,3.834,0,24.784
17986,3.857,0,0.424,1.022,1.777,3.834,0,24.788
18026,3.857,0,0.424,1.022,1.777,3.834,0,24.751
18066,3.857,0,0.424,1.022,1.777,3.834,0,24.748
18106,3.857,0,0.424,1.022,1.777,3.834,0,24.757
18146,3.857,0,0.424,1.022,1.777,3.834,0,24.721
18186,3.857,0,0.424,1.022,1.777,3.834,0,24.751
18226,3.857,0,0.424,1.022,1.777,3.834,0,24.717
18266,3.857,0,0.424,1.022,1.777,3.834,0,24.689
18306,3.857,0,0.424,1.022,1.777,3.834,0,24.708
18344,3.843,0,0.424,1.03,1.777,3.865,0,24.754
18383,3.861,0,0.431,1.03,1.802,3.865,0,24.799
18422,3.642,-3.35,0.431,1.044,1.802,3.916,-0.002,24.933
18462,3.607,-3.35,0.431,1.081,1.802,4.051,-0.001,25.185
18502,3.589,-3.35,0.431,1.119,1.802,4.185,0,25.51
18542,3.574,-3.35,0.431,1.156,1.802,4.318,0,25.832
18582,3.56,-3.35,0.431,1.193,1.802,4.451,0,26.175
18622,3.546,-3.35,0.431,1.23,1.802,4.583,0,26.474
18662,3.532,-3.35,0.431,1.268,1.802,4.715,0,26.761
18702,3.517,-3.35,0.431,1.305,1.802,4.846,0,27.047
18742,3.504,-3.35,0.431,1.342,1.802,4.977,0,27.26
18781,3.684,0,0.431,1.365,1.802,5.058,0.001,27.519
18821,3.707,0,0.431,1.365,1.802,5.058,0,27.422
18861,3.718,0,0.431,1.365,1.802,5.058,0,27.243
18901,3.725,0,0.431,1.365,1.802,5.058,0,27.094
18941,3.728,0,0.431,1.365,1.802,5.058,0,26.938
18981,3.73,0,0.431,1.365,1.802,5.058,0,26.807
19021,3.732,0,0.431,1.365,1.802,5.058,0,26.714
19061,3.733,0,0.431,1.365,1.802,5.058,0,26.561
19101,3.734,0,0.431,1.365,1.802,5.058,0,26.444
19141,3.735,0,0.431,1.365,1.802,5.058,0,26.354
19181,3.736,0,0.431,1.365,1.802,5.058,0,26.219
19221,3.737,0,0.431,1.365,1.802,5.058,0,26.111
19261,3.737,0,0.431,1.365,1.802,5.058,0,26.034
19301,3.738,0,0.431,1.365,1.802,5.058,0,25.977
19341,3.738,0,0.431,1.365,1.802,5.058,0,25.909
19381,3.739,0,0.431,1.365,1.802,5.058,0,25.836
19421,3.739,0,0.431,1.365,1.802,5.058,0,25.797
19461,3.739,0,0.431,1.365,1.802,5.058,0,25.696
19501,3.74,0,0.431,1.365,1.802,5.058,0,25.696
19541,3.74,0,0.431,1.365,1.802,5.058,0,25.585
19581,3.74,0,0.431,1.365,1.802,5.058,0,25.577
19621,3.74,0,0.431,1.365,1.802,5.058,0,25.541
19661,3.741,0,0.431,1.365,1.802,5.058,0,25.51
19701,3.741,0,0.431,1.365,1.802,5.058,0,25.449
19741,3.741,0,0.431,1.365,1.802,5.058,0,25.411
19781,3.741,0,0.431,1.365,1.802,5.058,0,25.404
19821,3.741,0,0.431,1.365,1.802,5.058,0,25.4
19861,3.742,0,0.431,1.365,1.802,5.058,0,25.406
19901,3.742,0,0.431,1.365,1.802,5.058,0,25.38
19941,3.742,0,0.431,1.365,1.802,5.058,0,25.321
19981,3.742,0,0.431,1.365,1.802,5.058,0,25.35
20021,3.742,0,0.431,1.365,1.802,5.058,0,25.316
20061,3.743,0,0.431,1.365,1.802,5.058,0,25.29
20101,3.743,0,0.431,1.365,1.802,5.058,0,25.273
20141,3.743,0,0.431,1.365,1.802,5.058,0,25.224
20181,3.743,0,0.431,1.365,1.802,5.058,0,25.175
20221,3.743,0,0.431,1.365,1.802,5.058,0,25.199
20261,3.744,0,0.431,1.365,1.802,5.058,0,25.214
20301,3.744,0,0.431,1.365,1.802,5.058,0,25.202
20341,3.744,0,0.431,1.365,1.802,5.058,0,25.177
20381,3.744,0,0.431,1.365,1.802,5.058,0,25.117
20421,3.744,0,0.431,1.365,1.802,5.058,0,25.142
20461,3.744,0,0.431,1.365,1.802,5.058,0,25.121
20501,3.745,0,0.431,1.365,1.802,5.058,0,25.16
20541,3.745,0,0.431,1.365,1.802,5.058,0,25.106
20581,3.745,0,0.431,1.365,1.802,5.058,0,25.091
20621,3.745,0,0.431,1.365,1.802,5.058,0,25.061
20661,3.745,0,0.431,1.365,1.802,5.058,0,25.039
20701,3.746,0,0.431,1.365,1.802,5.058,0,25.081
20741,3.746,0,0.431,1.365,1.802,5.058,0,25.038
20781,3.746,0,0.431,1.365,1.802,5.058,0,25.009
20821,3.746,0,0.431,1.365,1.802,5.058,0,25.012
20861,3.747,0,0.431,1.365,1.802,5.058,0,25.03
20901,3.747,0,0.431,1.365,1.802,5.058,0,25.031
20941,3.747,0,0.431,1.365,1.802,5.058,0,25.009
20981,3.747,0,0.431,1.365,1.802,5.058,0,24.981
21021,3.748,0,0.431,1.365,1.802,5.058,0,24.941
21061,3.748,0,0.431,1.365,1.802,5.058,0,24.918
21101,3.748,0,0.431,1.365,1.802,5.058,0,24.975
21141,3.748,0,0.431,1.365,1.802,5.058,0,24.907
21181,3.749,0,0.431,1.365,1.802,5.058,0,24.907
21221,3.749,0,0.431,1.365,1.802,5.058,0,24.905
21261,3.749,0,0.431,1.365,1.802,5.058,0,24.863
21301,3.75,0,0.431,1.365,1.802,5.058,0,24.848
21341,3.75,0,0.431,1.365,1.802,5.058,0,24.874
21381,3.75,0,0.431,1.365,1.802,5.058,0,24.826
21421,3.751,0,0.431,1.365,1.802,5.058,0,24.855
21461,3.751,0,0.431,1.365,1.802,5.058,0,24.897
21501,3.751,0,0.431,1.365,1.802,5.058,0,24.83
21541,3.752,0,0.431,1.365,1.802,5.058,0,24.852
21581,3.752,0,0.431,1.365,1.802,5.058,0,24.849
21621,3.752,0,0.431,1.365,1.802,5.058,0,24.843
21661,3.753,0,0.431,1.365,1.802,5.058,0,24.767
21701,3.753,0,0.431,1.365,1.802,5.058,0,24.823
21741,3.754,0,0.431,1.365,1.802,5.058,0,24.843
21781,3.754,0,0.431,1.365,1.802,5.058,0,24.802
21821,3.754,0,0.431,1.365,1.802,5.058,0,24.829
21861,3.755,0,0.431,1.365,1.802,5.058,0,24.843
21901,3.755,0,0.431,1.365,1.802,5.058,0,24.805
21941,3.755,0,0.431,1.365,1.802,5.058,0,24.828
21981,3.756,0,0.431,1.365,1.802,5.058,0,24.796
22021,3.756,0,0.431,1.365,1.802,5.058,0,24.792
22061,3.756,0,0.431,1.365,1.802,5.058,0,24.805
22101,3.756,0,0.431,1.365,1.802,5.058,0,24.797
22141,3.757,0,0.431,1.365,1.802,5.058,0,24.762
22181,3.757,0,0.431,1.365,1.802,5.058,0,24.796
22221,3.757,0,0.431,1.365,1.802,5.058,0,24.808
22261,3.757,0,0.431,1.365,1.802,5.058,0,24.773
22301,3.758,0,0.431,1.365,1.802,5.058,0,24.8
22341,3.758,0,0.431,1.365,1.802,5.058,0,24.783
22379,3.728,0,0.431,1.374,1.802,5.088,0.003,24.78
22418,3.86,2.25,0.431,1.374,1.805,5.088,0.116,24.831
22457,3.758,0,0.437,1.374,1.826,5.088,0,24.878
22496,3.528,-3.35,0.437,1.401,1.826,5.184,-0.001,25.01
22536,3.504,-3.35,0.437,1.438,1.826,5.315,0,25.36
22576,3.488,-3.35,0.437,1.475,1.826,5.445,0,25.616
22616,3.474,-3.35,0.437,1.512,1.826,5.575,0,25.92
22656,3.46,-3.35,0.437,1.55,1.826,5.704,0,26.15
22696,3.447,-3.35,0.437,1.587,1.826,5.832,0,26.45
22736,3.434,-3.35,0.437,1.624,1.826,5.96,0,26.722
22776,3.421,-3.35,0.437,1.661,1.826,6.088,0,27.01
22816,3.409,-3.35,0.437,1.698,1.826,6.215,0,27.274
22855,3.61,0,0.437,1.709,1.826,6.25,0.001,27.404
22895,3.625,0,0.437,1.709,1.826,6.25,0,27.223
22935,3.633,0,0.437,1.709,1.826,6.25,0,26.986
22975,3.638,0,0.437,1.709,1.826,6.25,0,26.787
23015,3.641,0,0.437,1.709,1.826,6.25,0,26.673
23055,3.643,0,0.437,1.709,1.826,6.25,0,26.56
23095,3.644,0,0.437,1.709,1.826,6.25,0,26.385
23135,3.645,0,0.437,1.709,1.826,6.25,0,26.254
23175,3.646,0,0.437,1.709,1.826,6.25,0,26.154
23215,3.647,0,0.437,1.709,1.826,6.25,0,26.086
23255,3.647,0,0.437,1.709,1.826,6.25,0,25.964
23295,3.648,0,0.437,1.709,1.826,6.25,0,25.911
23335,3.648,0,0.437,1.709,1.826,6.25,0,25.787
23375,3.648,0,0.437,1.709,1.826,6.25,0,25.694
23415,3.649,0,0.437,1.709,1.826,6.25,0,25.622
23455,3.649,0,0.437,1.709,1.826,6.25,0,25.572
23495,3.649,0,0.437,1.709,1.826,6.25,0,25.485
23535,3.649,0,0.437,1.709,1.826,6.25,0,25.416
23575,3.649,0,0.437,1.709,1.826,6.25,0,25.383
23615,3.65,0,0.437,1.709,1.826,6.25,0,25.367
23655,3.65,0,0.437,1.709,1.826,6.25,0,25.311
23695,3.65,0,0.437,1.709,1.826,6.25,0,25.274
23735,3.65,0,0.437,1.709,1.826,6.25,0,25.215
23775,3.65,0,0.437,1.709,1.826,6.25,0,25.169
23815,3.65,0,0.437,1.709,1.826,6.25,0,25.166
23855,3.65,0,0.437,1.709,1.826,6.25,0,25.135
23895,3.651,0,0.437,1.709,1.826,6.25,0,25.12
23935,3.651,0,0.437,1.709,1.826,6.25,0,25.022
23975,3.651,0,0.437,1.709,1.826,6.25,0,25.071
24015,3.651,0,0.437,1.709,1.826,6.25,0,25.041
24055,3.651,0,0.437,1.709,1.826,6.25,0,25.007
24095,3.651,0,0.437,1.709,1.826,6.25,0,24.977
24135,3.651,0,0.437,1.709,1.826,6.25,0,24.96
24175,3.651,0,0.437,1.709,1.826,6.25,0,24.905
24215,3.651,0,0.437,1.709,1.826,6.25,0,24.935
24255,3.651,0,0.437,1.709,1.826,6.25,0,24.908
24295,3.651,0,0.437,1.709,1.826,6.25,0,24.893
24335,3.652,0,0.437,1.709,1.826,6.25,0,24.929
24375,3.652,0,0.437,1.709,1.826,6.25,0,24.941
24415,3.652,0,0.437,1.709,1.826,6.25,0,24.857
24455,3.652,0,0.437,1.709,1.826,6.25,0,24.864
24495,3.652,0,0.437,1.709,1.826,6.25,0,24.898
24535,3.652,0,0.437,1.709,1.826,6.25,0,24.891
24575,3.652,0,0.437,1.709,1.826,6.25,0,24.828
24615,3.652,0,0.437,1.709,1.826,6.25,0,24.846
24655,3.652,0,0.437,1.709,1.826,6.25,0,24.863
24695,3.652,0,0.437,1.709,1.826,6.25,0,24.832
24735,3.652,0,0.437,1.709,1.826,6.25,0,24.871
24775,3.652,0,0.437,1.709,1.826,6.25,0,24.782
24815,3.652,0,0.437,1.709,1.826,6.25,0,24.828
24855,3.652,0,0.437,1.709,1.826,6.25,0,24.802
24895,3.652,0,0.437,1.709,1.826,6.25,0,24.801
24935,3.652,0,0.437,1.709,1.826,6.25,0,24.834
24975,3.653,0,0.437,1.709,1.826,6.25,0,24.791
25015,3.653,0,0.437,1.709,1.826,6.25,0,24.825
25055,3.653,0,0.437,1.709,1.826,6.25,0,24.748
25095,3.653,0,0.437,1.709,1.826,6.25,0,24.779
25135,3.653,0,0.437,1.709,1.826,6.25,0,24.764
25175,3.653,0,0.437,1.709,1.826,6.25,0,24.747
25215,3.653,0,0.437,1.709,1.826,6.25,0,24.761
25255,3.653,0,0.437,1.709,1.826,6.25,0,24.758
25295,3.653,0,0.437,1.709,1.826,6.25,0,24.787
25335,3.653,0,0.437,1.709,1.826,6.25,0,24.764
25375,3.653,0,0.437,1.709,1.826,6.25,0,24.766
25415,3.653,0,0.437,1.709,1.826,6.25,0,24.79
25455,3.653,0,0.437,1.709,1.826,6.25,0,24.797
25495,3.653,0,0.437,1.709,1.826,6.25,0,24.776
25535,3.653,0,0.437,1.709,1.826,6.25,0,24.753
25575,3.653,0,0.437,1.709,1.826,6.25,0,24.776
25615,3.653,0,0.437,1.709,1.826,6.25,0,24.786
25655,3.653,0,0.437,1.709,1.826,6.25,0,24.798
25695,3.653,0,0.437,1.709,1.826,6.25,0,24.763
25735,3.653,0,0.437,1.709,1.826,6.25,0,24.719
25775,3.653,0,0.437,1.709,1.826,6.25,0,24.787
25815,3.653,0,0.437,1.709,1.826,6.25,0,24.75
25855,3.653,0,0.437,1.709,1.826,6.25,0,24.748
25895,3.653,0,0.437,1.709,1.826,6.25,0,24.731
25935,3.653,0,0.437,1.709,1.826,6.25,0,24.727
25975,3.653,0,0.437,1.709,1.826,6.25,0,24.743
26015,3.653,0,0.437,1.709,1.826,6.25,0,24.731
26055,3.653,0,0.437,1.709,1.826,6.25,0,24.733
26095,3.653,0,0.437,1.709,1.826,6.25,0,24.794
26135,3.654,0,0.437,1.709,1.826,6.25,0,24.77
26175,3.654,0,0.437,1.709,1.826,6.25,0,24.755
26215,3.654,0,0.437,1.709,1.826,6.25,0,24.784
26255,3.653,0,0.437,1.709,1.826,6.25,0,24.743
26295,3.654,0,0.437,1.709,1.826,6.25,0,24.755
26335,3.654,0,0.437,1.709,1.826,6.25,0,24.747
26375,3.654,0,0.437,1.709,1.826,6.25,0,24.74
26415,3.654,0,0.437,1.709,1.826,6.25,0,24.774
26453,3.641,0,0.437,1.717,1.826,6.279,0,24.78
26491,3.66,0,0.443,1.717,1.85,6.279,-0.001,24.834
26530,3.477,-3.35,0.443,1.72,1.85,6.289,-0.004,24.864
26570,3.421,-3.35,0.443,1.757,1.85,6.417,-0.001,25.114
26610,3.396,-3.35,0.443,1.794,1.85,6.544,-0.001,25.486
26650,3.378,-3.35,0.443,1.832,1.85,6.67,0,25.841
26690,3.365,-3.35,0.443,1.869,1.85,6.795,0,26.258
26730,3.352,-3.35,0.443,1.906,1.85,6.92,0,26.645
26770,3.342,-3.35,0.443,1.943,1.85,7.045,0,27.023
26810,3.331,-3.35,0.443,1.98,1.85,7.169,0,27.323
26850,3.322,-3.35,0.443,2.018,1.85,7.293,0,27.65
26889,3.486,0,0.443,2.052,1.85,7.407,0.004,27.926
26929,3.533,0,0.443,2.052,1.85,7.407,0.001,27.892
26969,3.551,0,0.443,2.052,1.85,7.407,0,27.688
27009,3.562,0,0.443,2.052,1.85,7.407,0,27.436
27049,3.568,0,0.443,2.052,1.85,7.407,0,27.18
27089,3.572,0,0.443,2.052,1.85,7.407,0,26.998
27129,3.574,0,0.443,2.052,1.85,7.407,0,26.811
27169,3.577,0,0.443,2.052,1.85,7.407,0,26.62
27209,3.579,0,0.443,2.052,1.85,7.407,0,26.511
27249,3.581,0,0.443,2.052,1.85,7.407,0,26.375
27289,3.582,0,0.443,2.052,1.85,7.407,0,26.232
27329,3.583,0,0.443,2.052,1.85,7.407,0,26.101
27369,3.584,0,0.443,2.052,1.85,7.407,0,26.043
27409,3.585,0,0.443,2.052,1.85,7.407,0,25.875
27449,3.586,0,0.443,2.052,1.85,7.407,0,25.826
27489,3.586,0,0.443,2.052,1.85,7.407,0,25.709
27529,3.587,0,0.443,2.052,1.85,7.407,0,25.648
27569,3.587,0,0.443,2.052,1.85,7.407,0,25.591
27609,3.587,0,0.443,2.052,1.85,7.407,0,25.527
27649,3.588,0,0.443,2.052,1.85,7.407,0,25.503
27689,3.588,0,0.443,2.052,1.85,7.407,0,25.411
27729,3.588,0,0.443,2.052,1.85,7.407,0,25.35
27769,3.588,0,0.443,2.052,1.85,7.407,0,25.314
27809,3.589,0,0.443,2.052,1.85,7.407,0,25.288
27849,3.589,0,0.443,2.052,1.85,7.407,0,25.183
27889,3.589,0,0.443,2.052,1.85,7.407,0,25.157
27929,3.589,0,0.443,2.052,1.85,7.407,0,25.133
27969,3.589,0,0.443,2.052,1.85,7.407,0,25.115
28009,3.589,0,0.443,2.052,1.85,7.407,0,25.09
28049,3.589,0,0.443,2.052,1.85,7.407,0,25.059
28089,3.589,0,0.443,2.052,1.85,7.407,0,25.028
28129,3.59,0,0.443,2.052,1.85,7.407,0,25.032
28169,3.59,0,0.443,2.052,1.85,7.407,0,24.97
28209,3.59,0,0.443,2.052,1.85,7.407,0,24.971
28249,3.59,0,0.443,2.052,1.85,7.407,0,24.964
28289,3.59,0,0.443,2.052,1.85,7.407,0,24.958
28329,3.59,0,0.443,2.052,1.85,7.407,0,24.894
28369,3.59,0,0.443,2.052,1.85,7.407,0,24.914
28409,3.59,0,0.443,2.052,1.85,7.407,0,24.893
28449,3.59,0,0.443,2.052,1.85,7.407,0,24.866
28489,3.59,0,0.443,2.052,1.85,7.407,0,24.88
28529,3.59,0,0.443,2.052,1.85,7.407,0,24.877
28569,3.59,0,0.443,2.052,1.85,7.407,0,24.828
28609,3.59,0,0.443,2.052,1.85,7.407,0,24.866
28649,3.59,0,0.443,2.052,1.85,7.407,0,24.826
28689,3.591,0,0.443,2.052,1.85,7.407,0,24.82
28729,3.591,0,0.443,2.052,1.85,7.407,0,24.805
28769,3.591,0,0.443,2.052,1.85,7.407,0,24.846
28809,3.591,0,0.443,2.052,1.85,7.407,0,24.824
28849,3.591,0,0.443,2.052,1.85,7.407,0,24.753
28889,3.591,0,0.443,2.052,1.85,7.407,0,24.763
28929,3.591,0,0.443,2.052,1.85,7.407,0,24.783
28969,3.591,0,0.443,2.052,1.85,7.407,0,24.765
29009,3.591,0,0.443,2.052,1.85,7.407,0,24.771
29049,3.591,0,0.443,2.052,1.85,7.407,0,24.8
29089,3.591,0,0.443,2.052,1.85,7.407,0,24.79
29129,3.591,0,0.443,2.052,1.85,7.407,0,24.796
29169,3.591,0,0.443,2.052,1.85,7.407,0,24.783
29209,3.591,0,0.443,2.052,1.85,7.407,0,24.745
29249,3.591,0,0.443,2.052,1.85,7.407,0,24.8
29289,3.591,0,0.443,2.052,1.85,7.407,0,24.756
29329,3.591,0,0.443,2.052,1.85,7.407,0,24.772
29369,3.591,0,0.443,2.052,1.85,7.407,0,24.77
29409,3.591,0,0.443,2.052,1.85,7.407,0,24.779
29449,3.591,0,0.443,2.052,1.85,7.407,0,24.775
29489,3.591,0,0.443,2.052,1.85,7.407,0,24.761
29529,3.591,0,0.443,2.052,1.85,7.407,0,24.743
29569,3.591,0,0.443,2.052,1.85,7.407,0,24.772
29609,3.591,0,0.443,2.052,1.85,7.407,0,24.784
29649,3.591,0,0.443,2.052,1.85,7.407,0,24.786
29689,3.591,0,0.443,2.052,1.85,7.407,0,24.767
29729,3.592,0,0.443,2.052,1.85,7.407,0,24.742
29769,3.592,0,0.443,2.052,1.85,7.407,0,24.748
29809,3.592,0,0.443,2.052,1.85,7.407,0,24.734
29849,3.592,0,0.443,2.052,1.85,7.407,0,24.753
29889,3.592,0,0.443,2.052,1.85,7.407,0,24.707
29929,3.592,0,0.443,2.052,1.85,7.407,0,24.776
29969,3.592,0,0.443,2.052,1.85,7.407,0,24.755
30009,3.592,0,0.443,2.052,1.85,7.407,0,24.749
30049,3.592,0,0.443,2.052,1.85,7.407,0,24.715
30089,3.592,0,0.443,2.052,1.85,7.407,0,24.783
30129,3.592,0,0.443,2.052,1.85,7.407,0,24.738
30169,3.592,0,0.443,2.052,1.85,7.407,0,24.785
30209,3.592,0,0.443,2.052,1.85,7.407,0,24.731
30249,3.592,0,0.443,2.052,1.85,7.407,0,24.764
30289,3.592,0,0.443,2.052,1.85,7.407,0,24.71
30329,3.592,0,0.443,2.052,1.85,7.407,0,24.704
30369,3.592,0,0.443,2.052,1.85,7.407,0,24.762
30409,3.592,0,0.443,2.052,1.85,7.407,0,24.751
30449,3.592,0,0.443,2.052,1.85,7.407,0,24.735
30488,3.437,-3,0.443,2.053,1.85,7.41,-0.155,24.739
30528,3.582,0,0.443,2.061,1.85,7.436,0,24.821
30566,3.594,0,0.449,2.061,1.873,7.436,0,24.873
30605,3.381,-3.35,0.449,2.076,1.873,7.49,-0.002,24.888
30645,3.34,-3.35,0.449,2.114,1.873,7.615,-0.001,25.329
30685,3.313,-3.35,0.449,2.151,1.873,7.739,-0.001,25.726
30725,3.292,-3.35,0.449,2.188,1.873,7.862,0,26.181
30765,3.277,-3.35,0.449,2.225,1.873,7.984,0,26.657
30805,3.265,-3.35,0.449,2.262,1.873,8.106,0,27.116
30845,3.254,-3.35,0.449,2.3,1.873,8.227,0,27.493
30885,3.242,-3.35,0.449,2.337,1.873,8.348,0,27.887
30925,3.229,-3.35,0.449,2.374,1.873,8.468,0,28.272
30964,3.435,0,0.449,2.396,1.873,8.537,0.001,28.571
31004,3.457,0,0.449,2.396,1.873,8.537,0,28.348
31044,3.467,0,0.449,2.396,1.873,8.537,0,28.095
31084,3.476,0,0.449,2.396,1.873,8.537,0,27.811
31124,3.485,0,0.449,2.396,1.873,8.537,0,27.644
31164,3.493,0,0.449,2.396,1.873,8.537,0,27.439
31204,3.499,0,0.449,2.396,1.873,8.537,0,27.24
31244,3.503,0,0.449,2.396,1.873,8.537,0,27.019
31284,3.507,0,0.449,2.396,1.873,8.537,0,26.825
31324,3.51,0,0.449,2.396,1.873,8.537,0,26.669
31364,3.512,0,0.449,2.396,1.873,8.537,0,26.513
31404,3.514,0,0.449,2.396,1.873,8.537,0,26.341
31444,3.515,0,0.449,2.396,1.873,8.537,0,26.227
31484,3.517,0,0.449,2.396,1.873,8.537,0,26.067
31524,3.518,0,0.449,2.396,1.873,8.537,0,25.973
31564,3.519,0,0.449,2.396,1.873,8.537,0,25.906
31604,3.52,0,0.449,2.396,1.873,8.537,0,25.757
31644,3.521,0,0.449,2.396,1.873,8.537,0,25.701
31684,3.522,0,0.449,2.396,1.873,8.537,0,25.662
31724,3.523,0,0.449,2.396,1.873,8.537,0,25.6
31764,3.523,0,0.449,2.396,1.873,8.537,0,25.522
31804,3.524,0,0.449,2.396,1.873,8.537,0,25.43
31844,3.525,0,0.449,2.396,1.873,8.537,0,25.408
31884,3.525,0,0.449,2.396,1.873,8.537,0,25.332
31924,3.526,0,0.449,2.396,1.873,8.537,0,25.283
31964,3.526,0,0.449,2.396,1.873,8.537,0,25.217
32004,3.527,0,0.449,2.396,1.873,8.537,0,25.194
32044,3.527,0,0.449,2.396,1.873,8.537,0,25.17
32084,3.528,0,0.449,2.396,1.873,8.537,0,25.123
32124,3.528,0,0.449,2.396,1.873,8.537,0,25.11
32164,3.528,0,0.449,2.396,1.873,8.537,0,25.087
32204,3.529,0,0.449,2.396,1.873,8.537,0,25.043
32244,3.529,0,0.449,2.396,1.873,8.537,0,25.006
32284,3.529,0,0.449,2.396,1.873,8.537,0,25.008
32324,3.53,0,0.449,2.396,1.873,8.537,0,24.969
32364,3.53,0,0.449,2.396,1.873,8.537,0,24.968
32404,3.53,0,0.449,2.396,1.873,8.537,0,24.934
32444,3.53,0,0.449,2.396,1.873,8.537,0,24.907
32484,3.531,0,0.449,2.396,1.873,8.537,0,24.877
32524,3.531,0,0.449,2.396,1.873,8.537,0,24.883
32564,3.531,0,0.449,2.396,1.873,8.537,0,24.859
32604,3.531,0,0.449,2.396,1.873,8.537,0,24.878
32644,3.531,0,0.449,2.396,1.873,8.537,0,24.848
32684,3.532,0,0.449,2.396,1.873,8.537,0,24.86
32724,3.532,0,0.449,2.396,1.873,8.537,0,24.834
32764,3.532,0,0.449,2.396,1.873,8.537,0,24.833
32804,3.532,0,0.449,2.396,1.873,8.537,0,24.776
32844,3.532,0,0.449,2.396,1.873,8.537,0,24.842
32884,3.532,0,0.449,2.396,1.873,8.537,0,24.767
32924,3.532,0,0.449,2.396,1.873,8.537,0,24.801
32964,3.532,0,0.449,2.396,1.873,8.537,0,24.79
33004,3.533,0,0.449,2.396,1.873,8.537,0,24.81
33044,3.533,0,0.449,2.396,1.873,8.537,0,24.808
33084,3.533,0,0.449,2.396,1.873,8.537,0,24.829
33124,3.533,0,0.449,2.396,1.873,8.537,0,24.782
33164,3.533,0,0.449,2.396,1.873,8.537,0,24.737
33204,3.533,0,0.449,2.396,1.873,8.537,0,24.739
33244,3.533,0,0.449,2.396,1.873,8.537,0,24.755
33284,3.533,0,0.449,2.396,1.873,8.537,0,24.757
33324,3.533,0,0.449,2.396,1.873,8.537,0,24.754
33364,3.534,0,0.449,2.396,1.873,8.537,0,24.742
33404,3.534,0,0.449,2.396,1.873,8.537,0,24.717
33444,3.534,0,0.449,2.396,1.873,8.537,0,24.718
33484,3.534,0,0.449,2.396,1.873,8.537,0,24.787
33524,3.534,0,0.449,2.396,1.873,8.537,0,24.726
33564,3.534,0,0.449,2.396,1.873,8.537,0,24.774
33604,3.534,0,0.449,2.396,1.873,8.537,0,24.755
33644,3.534,0,0.449,2.396,1.873,8.537,0,24.721
33684,3.534,0,0.449,2.396,1.873,8.537,0,24.741
33724,3.534,0,0.449,2.396,1.873,8.537,0,24.737
33764,3.534,0,0.449,2.396,1.873,8.537,0,24.739
33804,3.534,0,0.449,2.396,1.873,8.537,0,24.684
33844,3.534,0,0.449,2.396,1.873,8.537,0,24.744
33884,3.534,0,0.449,2.396,1.873,8.537,0,24.722
33924,3.535,0,0.449,2.396,1.873,8.537,0,24.731
33964,3.535,0,0.449,2.396,1.873,8.537,0,24.699
34004,3.535,0,0.449,2.396,1.873,8.537,0,24.722
34044,3.535,0,0.449,2.396,1.873,8.537,0,24.729
34084,3.535,0,0.449,2.396,1.873,8.537,0,24.702
34124,3.535,0,0.449,2.396,1.873,8.537,0,24.683
34164,3.535,0,0.449,2.396,1.873,8.537,0,24.749
34204,3.535,0,0.449,2.396,1.873,8.537,0,24.729
34244,3.535,0,0.449,2.396,1.873,8.537,0,24.708
34284,3.535,0,0.449,2.396,1.873,8.537,0,24.722
34324,3.535,0,0.449,2.396,1.873,8.537,0,24.718
34364,3.535,0,0.449,2.396,1.873,8.537,0,24.698
34404,3.535,0,0.449,2.396,1.873,8.537,0,24.733
34444,3.535,0,0.449,2.396,1.873,8.537,0,24.7
34484,3.535,0,0.449,2.396,1.873,8.537,0,24.706
34524,3.535,0,0.449,2.396,1.873,8.537,0,24.679
34562,3.514,0,0.449,2.404,1.873,8.565,0.001,24.737
34601,3.652,2.25,0.451,2.404,1.88,8.565,0.002,24.757
34640,3.536,0,0.456,2.404,1.896,8.565,0,24.791
34679,3.292,-3.35,0.456,2.433,1.896,8.661,-0.001,25.063
34719,3.251,-3.35,0.456,2.47,1.896,8.783,-0.001,25.505
34759,3.22,-3.35,0.456,2.507,1.896,8.903,-0.001,26.015
34799,3.198,-3.35,0.456,2.544,1.896,9.023,-0.001,26.545
34839,3.178,-3.35,0.456,2.582,1.896,9.141,0,27.037
34879,3.158,-3.35,0.456,2.619,1.896,9.259,-0.001,27.501
34919,3.137,-3.35,0.456,2.656,1.896,9.377,-0.001,28.008
34959,3.115,-3.35,0.456,2.693,1.896,9.493,-0.001,28.47
34999,3.092,-3.35,0.456,2.731,1.896,9.608,-0.001,28.86
35038,3.359,0,0.456,2.739,1.896,9.634,0.001,29.049
35078,3.378,0,0.456,2.739,1.896,9.634,0,28.793
35118,3.385,0,0.456,2.739,1.896,9.634,0,28.541
35158,3.388,0,0.456,2.739,1.896,9.634,0,28.264
35198,3.391,0,0.456,2.739,1.896,9.634,0,28.11
35238,3.394,0,0.456,2.739,1.896,9.634,0,27.828
35278,3.397,0,0.456,2.739,1.896,9.634,0,27.657
35318,3.4,0,0.456,2.739,1.896,9.634,0,27.422
35358,3.404,0,0.456,2.739,1.896,9.634,0,27.236
35398,3.407,0,0.456,2.739,1.896,9.634,0,27.103
35438,3.41,0,0.456,2.739,1.896,9.634,0,26.925
35478,3.412,0,0.456,2.739,1.896,9.634,0,26.768
35518,3.414,0,0.456,2.739,1.896,9.634,0,26.607
35558,3.416,0,0.456,2.739,1.896,9.634,0,26.509
35598,3.417,0,0.456,2.739,1.896,9.634,0,26.37
35638,3.419,0,0.456,2.739,1.896,9.634,0,26.241
35678,3.42,0,0.456,2.739,1.896,9.634,0,26.127
35718,3.421,0,0.456,2.739,1.896,9.634,0,26.066
35758,3.422,0,0.456,2.739,1.896,9.634,0,25.944
35798,3.423,0,0.456,2.739,1.896,9.634,0,25.823
35838,3.423,0,0.456,2.739,1.896,9.634,0,25.77
35878,3.424,0,0.456,2.739,1.896,9.634,0,25.666
35918,3.424,0,0.456,2.739,1.896,9.634,0,25.602
35958,3.425,0,0.456,2.739,1.896,9.634,0,25.563
35998,3.425,0,0.456,2.739,1.896,9.634,0,25.511
36038,3.426,0,0.456,2.739,1.896,9.634,0,25.454
36078,3.426,0,0.456,2.739,1.896,9.634,0,25.376
36118,3.427,0,0.456,2.739,1.896,9.634,0,25.318
36158,3.427,0,0.456,2.739,1.896,9.634,0,25.314
36198,3.427,0,0.456,2.739,1.896,9.634,0,25.262
36238,3.428,0,0.456,2.739,1.896,9.634,0,25.22
36278,3.428,0,0.456,2.739,1.896,9.634,0,25.164
36318,3.428,0,0.456,2.739,1.896,9.634,0,25.166
36358,3.428,0,0.456,2.739,1.896,9.634,0,25.112
36398,3.428,0,0.456,2.739,1.896,9.634,0,25.118
36438,3.429,0,0.456,2.739,1.896,9.634,0,25.046
36478,3.429,0,0.456,2.739,1.896,9.634,0,25.023
36518,3.429,0,0.456,2.739,1.896,9.634,0,25.018
36558,3.429,0,0.456,2.739,1.896,9.634,0,24.968
36598,3.429,0,0.456,2.739,1.896,9.634,0,24.982
36638,3.429,0,0.456,2.739,1.896,9.634,0,24.927
36678,3.43,0,0.456,2.739,1.896,9.634,0,24.925
36718,3.43,0,0.456,2.739,1.896,9.634,0,24.952
36758,3.43,0,0.456,2.739,1.896,9.634,0,24.953
36798,3.43,0,0.456,2.739,1.896,9.634,0,24.919
36838,3.43,0,0.456,2.739,1.896,9.634,0,24.893
36878,3.43,0,0.456,2.739,1.896,9.634,0,24.878
36918,3.43,0,0.456,2.739,1.896,9.634,0,24.864
36958,3.43,0,0.456,2.739,1.896,9.634,0,24.885
36998,3.43,0,0.456,2.739,1.896,9.634,0,24.899
37038,3.43,0,0.456,2.739,1.896,9.634,0,24.896
37078,3.431,0,0.456,2.739,1.896,9.634,0,24.841
37118,3.431,0,0.456,2.739,1.896,9.634,0,24.855
37158,3.431,0,0.456,2.739,1.896,9.634,0,24.816
37198,3.431,0,0.456,2.739,1.896,9.634,0,24.831
37238,3.431,0,0.456,2.739,1.896,9.634,0,24.836
37278,3.431,0,0.456,2.739,1.896,9.634,0,24.82
37318,3.431,0,0.456,2.739,1.896,9.634,0,24.806
37358,3.431,0,0.456,2.739,1.896,9.634,0,24.81
37398,3.431,0,0.456,2.739,1.896,9.634,0,24.786
37438,3.431,0,0.456,2.739,1.896,9.634,0,24.793
37478,3.431,0,0.456,2.739,1.896,9.634,0,24.789
37518,3.431,0,0.456,2.739,1.896,9.634,0,24.828
37558,3.431,0,0.456,2.739,1.896,9.634,0,24.779
37598,3.431,0,0.456,2.739,1.896,9.634,0,24.815
37638,3.431,0,0.456,2.739,1.896,9.634,0,24.807
37678,3.432,0,0.456,2.739,1.896,9.634,0,24.854
37718,3.432,0,0.456,2.739,1.896,9.634,0,24.831
37758,3.432,0,0.456,2.739,1.896,9.634,0,24.809
37798,3.432,0,0.456,2.739,1.896,9.634,0,24.843
37838,3.432,0,0.456,2.739,1.896,9.634,0,24.789
37878,3.432,0,0.456,2.739,1.896,9.634,0,24.809
37918,3.432,0,0.456,2.739,1.896,9.634,0,24.819
37958,3.432,0,0.456,2.739,1.896,9.634,0,24.819
37998,3.432,0,0.456,2.739,1.896,9.634,0,24.822
38038,3.432,0,0.456,2.739,1.896,9.634,0,24.825
38078,3.432,0,0.456,2.739,1.896,9.634,0,24.816
38118,3.432,0,0.456,2.739,1.896,9.634,0,24.827
38158,3.432,0,0.456,2.739,1.896,9.634,0,24.8
38198,3.432,0,0.456,2.739,1.896,9.634,0,24.796
38238,3.432,0,0.456,2.739,1.896,9.634,0,24.833
38278,3.432,0,0.456,2.739,1.896,9.634,0,24.811
38318,3.432,0,0.456,2.739,1.896,9.634,0,24.837
38358,3.432,0,0.456,2.739,1.896,9.634,0,24.818
38398,3.432,0,0.456,2.739,1.896,9.634,0,24.787
38438,3.432,0,0.456,2.739,1.896,9.634,0,24.799
38478,3.432,0,0.456,2.739,1.896,9.634,0,24.784
38518,3.432,0,0.456,2.739,1.896,9.634,0,24.79
38558,3.432,0,0.456,2.739,1.896,9.634,0,24.814
38598,3.432,0,0.456,2.739,1.896,9.634,0,24.809
38636,3.417,0,0.456,2.747,1.896,9.661,0,24.898
38674,3.439,0,0.462,2.747,1.918,9.661,-0.001,24.925
38713,3.181,-3.35,0.462,2.752,1.918,9.676,-0.005,24.933
38753,3.087,-3.35,0.462,2.789,1.918,9.793,-0.002,25.401
38793,3.035,-3.35,0.462,2.826,1.918,9.906,-0.001,26.075
38833,2.989,-3.35,0.462,2.864,1.918,10.019,-0.001,26.776
38873,2.941,-3.35,0.462,2.901,1.918,10.129,-0.001,27.474
38913,2.891,-3.35,0.462,2.938,1.918,10.237,-0.001,28.344
38953,2.837,-3.35,0.462,2.975,1.918,10.344,-0.001,29.167
38993,2.776,-3.35,0.462,3.013,1.918,10.449,-0.002,29.973
39033,2.706,-3.35,0.462,3.05,1.918,10.551,-0.002,30.864
39072,3.143,0,0.462,3.082,1.918,10.638,0.027,31.814
39112,3.258,0,0.462,3.082,1.918,10.638,0.001,31.689
39152,3.284,0,0.462,3.082,1.918,10.638,0,31.196
39192,3.297,0,0.462,3.082,1.918,10.638,0,30.7
39232,3.303,0,0.462,3.082,1.918,10.638,0,30.217
39272,3.308,0,0.462,3.082,1.918,10.638,0,29.792
39312,3.31,0,0.462,3.082,1.918,10.638,0,29.445
39352,3.312,0,0.462,3.082,1.918,10.638,0,29.077
39392,3.314,0,0.462,3.082,1.918,10.638,0,28.782
39432,3.315,0,0.462,3.082,1.918,10.638,0,28.47
39472,3.316,0,0.462,3.082,1.918,10.638,0,28.183
39512,3.317,0,0.462,3.082,1.918,10.638,0,27.957
39552,3.317,0,0.462,3.082,1.918,10.638,0,27.721
39592,3.318,0,0.462,3.082,1.918,10.638,0,27.468
39632,3.318,0,0.462,3.082,1.918,10.638,0,27.256
39672,3.319,0,0.462,3.082,1.918,10.638,0,27.124
39712,3.319,0,0.462,3.082,1.918,10.638,0,26.924
39752,3.32,0,0.462,3.082,1.918,10.638,0,26.749
39792,3.32,0,0.462,3.082,1.918,10.638,0,26.62
39832,3.32,0,0.462,3.082,1.918,10.638,0,26.465
39872,3.32,0,0.462,3.082,1.918,10.638,0,26.374
39912,3.321,0,0.462,3.082,1.918,10.638,0,26.254
39952,3.321,0,0.462,3.082,1.918,10.638,0,26.125
39992,3.321,0,0.462,3.082,1.918,10.638,0,26.023
40032,3.321,0,0.462,3.082,1.918,10.638,0,25.927
40072,3.321,0,0.462,3.082,1.918,10.638,0,25.831
40112,3.322,0,0.462,3.082,1.918,10.638,0,25.743
40152,3.322,0,0.462,3.082,1.918,10.638,0,25.693
40192,3.322,0,0.462,3.082,1.918,10.638,0,25.564
40232,3.322,0,0.462,3.082,1.918,10.638,0,25.545
40272,3.322,0,0.462,3.082,1.918,10.638,0,25.517
40312,3.322,0,0.462,3.082,1.918,10.638,0,25.457
40352,3.322,0,0.462,3.082,1.918,10.638,0,25.427
40392,3.323,0,0.462,3.082,1.918,10.638,0,25.298
40432,3.323,0,0.462,3.082,1.918,10.638,0,25.315
40472,3.323,0,0.462,3.082,1.918,10.638,0,25.245
40512,3.323,0,0.462,3.082,1.918,10.638,0,25.207
40552,3.323,0,0.462,3.082,1.918,10.638,0,25.172
40592,3.323,0,0.462,3.082,1.918,10.638,0,25.182
40632,3.323,0,0.462,3.082,1.918,10.638,0,25.144
40672,3.323,0,0.462,3.082,1.918,10.638,0,25.108
40712,3.323,0,0.462,3.082,1.918,10.638,0,25.037
40752,3.323,0,0.462,3.082,1.918,10.638,0,25.046
40792,3.323,0,0.462,3.082,1.918,10.638,0,25.078
40832,3.324,0,0.462,3.082,1.918,10.638,0,25.002
40872,3.324,0,0.462,3.082,1.918,10.638,0,25.013
40912,3.324,0,0.462,3.082,1.918,10.638,0,24.984
40952,3.324,0,0.462,3.082,1.918,10.638,0,24.971
40992,3.324,0,0.462,3.082,1.918,10.638,0,24.95
41032,3.324,0,0.462,3.082,1.918,10.638,0,24.928
41072,3.324,0,0.462,3.082,1.918,10.638,0,24.94
41112,3.324,0,0.462,3.082,1.918,10.638,0,24.854
41152,3.324,0,0.462,3.082,1.918,10.638,0,24.916
41192,3.324,0,0.462,3.082,1.918,10.638,0,24.895
41232,3.324,0,0.462,3.082,1.918,10.638,0,24.898
41272,3.324,0,0.462,3.082,1.918,10.638,0,24.864
41312,3.324,0,0.462,3.082,1.918,10.638,0,24.876
41352,3.324,0,0.462,3.082,1.918,10.638,0,24.844
41392,3.324,0,0.462,3.082,1.918,10.638,0,24.827
41432,3.325,0,0.462,3.082,1.918,10.638,0,24.866
41472,3.325,0,0.462,3.082,1.918,10.638,0,24.876
41512,3.325,0,0.462,3.082,1.918,10.638,0,24.804
41552,3.325,0,0.462,3.082,1.918,10.638,0,24.825
41592,3.325,0,0.462,3.082,1.918,10.638,0,24.804
41632,3.325,0,0.462,3.082,1.918,10.638,0,24.819
41672,3.325,0,0.462,3.082,1.918,10.638,0,24.867
41712,3.325,0,0.462,3.082,1.918,10.638,0,24.882
41752,3.325,0,0.462,3.082,1.918,10.638,0,24.856
41792,3.325,0,0.462,3.082,1.918,10.638,0,24.906
41832,3.325,0,0.462,3.082,1.918,10.638,0,24.907
41872,3.325,0,0.462,3.082,1.918,10.638,0,24.901
41912,3.325,0,0.462,3.082,1.918,10.638,0,24.848
41952,3.325,0,0.462,3.082,1.918,10.638,0,24.814
41992,3.325,0,0.462,3.082,1.918,10.638,0,24.892
42032,3.325,0,0.462,3.082,1.918,10.638,0,24.833
42072,3.325,0,0.462,3.082,1.918,10.638,0,24.813
42112,3.325,0,0.462,3.082,1.918,10.638,0,24.871
42152,3.325,0,0.462,3.082,1.918,10.638,0,24.855
42192,3.325,0,0.462,3.082,1.918,10.638,0,24.869
42232,3.325,0,0.462,3.082,1.918,10.638,0,24.859
42272,3.325,0,0.462,3.082,1.918,10.638,0,24.835
42312,3.326,0,0.462,3.082,1.918,10.638,0,24.833
42352,3.326,0,0.462,3.082,1.918,10.638,0,24.835
42392,3.326,0,0.462,3.082,1.918,10.638,0,24.839
42432,3.326,0,0.462,3.082,1.918,10.638,0,24.858
42472,3.326,0,0.462,3.082,1.918,10.638,0,24.849
42512,3.326,0,0.462,3.082,1.918,10.638,0,24.871
42552,3.326,0,0.462,3.082,1.918,10.638,0,24.844
42592,3.326,0,0.462,3.082,1.918,10.638,0,24.869
42632,3.326,0,0.462,3.082,1.918,10.638,0,24.863
42671,2.899,-3,0.462,3.085,1.918,10.645,-0.044,24.834
42711,3.304,0,0.462,3.091,1.918,10.662,0,25.044
42749,3.33,0,0.468,3.091,1.94,10.662,0,25.114
42788,2.528,-3.35,0.468,3.108,1.94,10.71,-0.014,25.313
42790,2.501,-3.35,0.468,3.11,1.94,10.714,-0.014,25.313