File: data/T05/HPPC/3.csv
time_s,voltage_v,current_a,chargecapacity_ah,dischargecapacity_ah,charge_energy_wh,discharge_energy_wh,voltagedot_v_per_s,temp_degc
1,4.023,0.000,0.000,0.000,0.000,0.000,0.000,10.204
49,4.023,0.000,0.000,0.000,0.000,0.000,0.000,10.204
97,4.023,0.000,0.000,0.000,0.000,0.000,0.000,10.156
145,4.022,0.000,0.000,0.000,0.000,0.000,0.000,10.196
193,4.022,0.000,0.000,0.000,0.000,0.000,0.000,10.171
241,4.022,0.000,0.000,0.000,0.000,0.000,0.000,10.157
289,4.023,0.000,0.000,0.000,0.000,0.000,0.000,10.170
337,4.022,0.000,0.000,0.000,0.000,0.000,0.000,10.204
385,4.022,0.000,0.000,0.000,0.000,0.000,0.000,10.202
433,4.022,0.000,0.000,0.000,0.000,0.000,0.000,10.152
481,4.022,0.000,0.000,0.000,0.000,0.000,0.000,10.164
529,4.023,0.000,0.000,0.000,0.000,0.000,0.000,10.164
577,4.022,0.000,0.000,0.000,0.000,0.000,0.000,10.146
625,4.022,0.000,0.000,0.000,0.000,0.000,0.000,10.183
673,4.023,0.000,0.000,0.000,0.000,0.000,0.000,10.118
721,4.023,0.000,0.000,0.000,0.000,0.000,0.000,10.189
769,4.023,0.000,0.000,0.000,0.000,0.000,0.000,10.183
817,4.022,0.000,0.000,0.000,0.000,0.000,0.000,10.149
865,4.023,0.000,0.000,0.000,0.000,0.000,0.000,10.174
913,4.022,0.000,0.000,0.000,0.000,0.000,0.000,10.156
961,4.022,0.000,0.000,0.000,0.000,0.000,0.000,10.160
1009,4.022,0.000,0.000,0.000,0.000,0.000,0.000,10.167
1057,4.023,0.000,0.000,0.000,0.000,0.000,0.000,10.180
1105,4.023,0.000,0.000,0.000,0.000,0.000,0.000,10.148
1153,4.022,0.000,0.000,0.000,0.000,0.000,0.000,10.178
1201,4.022,0.000,0.000,0.000,0.000,0.000,0.000,10.161
1249,4.022,0.000,0.000,0.000,0.000,0.000,0.000,10.141
1297,4.023,0.000,0.000,0.000,0.000,0.000,0.000,10.148
1345,4.023,0.000,0.000,0.000,0.000,0.000,0.000,10.143
1393,4.022,0.000,0.000,0.000,0.000,0.000,0.000,10.124
1441,4.023,0.000,0.000,0.000,0.000,0.000,0.000,10.128
1489,4.023,0.000,0.000,0.000,0.000,0.000,0.000,10.167
1537,4.023,0.000,0.000,0.000,0.000,0.000,0.000,10.164
1585,4.023,0.000,0.000,0.000,0.000,0.000,0.000,10.172
1633,4.022,0.000,0.000,0.000,0.000,0.000,0.000,10.117
1681,4.022,0.000,0.000,0.000,0.000,0.000,0.000,10.182
1729,4.023,0.000,0.000,0.000,0.000,0.000,0.000,10.127
1777,4.022,0.000,0.000,0.000,0.000,0.000,0.000,10.153
1825,4.022,0.000,0.000,0.000,0.000,0.000,0.000,10.166
1873,4.023,0.000,0.000,0.000,0.000,0.000,0.000,10.213
1921,4.023,0.000,0.000,0.000,0.000,0.000,0.000,10.238
1969,4.023,0.000,0.000,0.000,0.000,0.000,0.000,10.202
2017,4.023,0.000,0.000,0.000,0.000,0.000,0.000,10.194
2065,4.023,0.000,0.000,0.000,0.000,0.000,0.000,10.217
2113,4.023,0.000,0.000,0.000,0.000,0.000,0.000,10.175
2161,4.023,0.000,0.000,0.000,0.000,0.000,0.000,10.229
2209,4.022,0.000,0.000,0.000,0.000,0.000,0.000,10.188
2257,4.023,0.000,0.000,0.000,0.000,0.000,0.000,10.197
2305,4.023,0.000,0.000,0.000,0.000,0.000,0.000,10.205
2353,4.023,0.000,0.000,0.000,0.000,0.000,0.000,10.228
2401,4.023,0.000,0.000,0.000,0.000,0.000,0.000,10.258
2449,4.023,0.000,0.000,0.000,0.000,0.000,0.000,10.266
2497,4.023,0.000,0.000,0.000,0.000,0.000,0.000,10.224
2545,4.023,0.000,0.000,0.000,0.000,0.000,0.000,10.269
2593,4.022,0.000,0.000,0.000,0.000,0.000,0.000,10.249
2641,4.022,0.000,0.000,0.000,0.000,0.000,0.000,10.289
2689,4.023,0.000,0.000,0.000,0.000,0.000,0.000,10.254
2737,4.023,0.000,0.000,0.000,0.000,0.000,0.000,10.246
2785,4.023,0.000,0.000,0.000,0.000,0.000,0.000,10.243
2833,4.023,0.000,0.000,0.000,0.000,0.000,0.000,10.209
2881,4.023,0.000,0.000,0.000,0.000,0.000,0.000,10.230
2929,4.023,0.000,0.000,0.000,0.000,0.000,0.000,10.199
2977,4.023,0.000,0.000,0.000,0.000,0.000,0.000,10.214
3025,4.023,0.000,0.000,0.000,0.000,0.000,0.000,10.191
3073,4.023,0.000,0.000,0.000,0.000,0.000,0.000,10.178
3121,4.023,0.000,0.000,0.000,0.000,0.000,0.000,10.190
3169,4.023,0.000,0.000,0.000,0.000,0.000,0.000,10.139
3217,4.023,0.000,0.000,0.000,0.000,0.000,0.000,10.126
3265,4.023,0.000,0.000,0.000,0.000,0.000,0.000,10.171
3313,4.023,0.000,0.000,0.000,0.000,0.000,0.000,10.134
3361,4.022,0.000,0.000,0.000,0.000,0.000,0.000,10.122
3409,4.023,0.000,0.000,0.000,0.000,0.000,0.000,10.090
3457,4.022,0.000,0.000,0.000,0.000,0.000,0.000,10.056
3505,4.023,0.000,0.000,0.000,0.000,0.000,0.000,10.106
3553,4.023,0.000,0.000,0.000,0.000,0.000,0.000,10.116
3600,4.023,0.000,0.000,0.000,0.000,0.000,0.000,10.072
3648,4.193,1.625,0.022,0.000,0.090,0.000,0.001,10.140
3695,4.200,1.488,0.042,0.000,0.178,0.000,0.000,10.341
3743,4.200,1.356,0.061,0.000,0.257,0.000,0.000,10.421
3791,4.200,1.262,0.079,0.000,0.330,0.000,0.000,10.491
3839,4.200,1.184,0.095,0.000,0.398,0.000,0.000,10.509
3887,4.200,1.116,0.110,0.000,0.463,0.000,0.000,10.582
3935,4.200,1.054,0.125,0.000,0.523,0.000,0.000,10.531
3983,4.200,0.997,0.138,0.000,0.581,0.000,0.000,10.566
4031,4.200,0.944,0.151,0.000,0.635,0.000,0.000,10.555
4079,4.200,0.895,0.164,0.000,0.686,0.000,0.000,10.536
4127,4.200,0.848,0.175,0.000,0.735,0.000,0.000,10.481
4175,4.200,0.805,0.186,0.000,0.782,0.000,0.000,10.422
4223,4.200,0.765,0.197,0.000,0.826,0.000,0.000,10.430
4271,4.200,0.726,0.207,0.000,0.867,0.000,0.000,10.396
4319,4.200,0.690,0.216,0.000,0.907,0.000,0.000,10.397
4367,4.200,0.657,0.225,0.000,0.945,0.000,0.000,10.328
4415,4.200,0.624,0.234,0.000,0.980,0.000,0.000,10.277
4463,4.200,0.594,0.242,0.000,1.015,0.000,0.000,10.283
4511,4.200,0.566,0.249,0.000,1.047,0.000,0.000,10.188
4559,4.200,0.539,0.257,0.000,1.078,0.000,0.000,10.184
4607,4.200,0.513,0.264,0.000,1.107,0.000,0.000,10.153
4655,4.200,0.489,0.270,0.000,1.135,0.000,0.000,10.108
4703,4.200,0.466,0.277,0.000,1.162,0.000,0.000,10.100
4751,4.200,0.445,0.283,0.000,1.188,0.000,0.000,9.989
4799,4.200,0.424,0.289,0.000,1.212,0.000,0.000,9.952
4847,4.200,0.406,0.294,0.000,1.235,0.000,0.000,9.928
4895,4.200,0.387,0.299,0.000,1.257,0.000,0.000,9.931
4943,4.200,0.370,0.305,0.000,1.278,0.000,0.000,9.881
4991,4.200,0.353,0.309,0.000,1.299,0.000,0.000,9.858
5039,4.200,0.338,0.314,0.000,1.318,0.000,0.000,9.795
5087,4.200,0.323,0.318,0.000,1.337,0.000,0.000,9.784
5135,4.200,0.310,0.323,0.000,1.354,0.000,0.000,9.769
5183,4.200,0.297,0.327,0.000,1.371,0.000,0.000,9.710
5231,4.200,0.284,0.330,0.000,1.388,0.000,0.000,9.673
5279,4.200,0.273,0.334,0.000,1.403,0.000,0.000,9.684
5327,4.200,0.261,0.338,0.000,1.418,0.000,0.000,9.652
5375,4.200,0.251,0.341,0.000,1.432,0.000,0.000,9.638
5423,4.200,0.241,0.344,0.000,1.446,0.000,0.000,9.580
5471,4.200,0.232,0.348,0.000,1.459,0.000,0.000,9.606
5519,4.200,0.222,0.351,0.000,1.472,0.000,0.000,9.552
5567,4.200,0.213,0.354,0.000,1.484,0.000,0.000,9.526
5615,4.200,0.206,0.356,0.000,1.496,0.000,0.000,9.539
5663,4.200,0.198,0.359,0.000,1.507,0.000,0.000,9.535
5711,4.200,0.191,0.362,0.000,1.518,0.000,0.000,9.469
5759,4.200,0.184,0.364,0.000,1.529,0.000,0.000,9.478
5807,4.200,0.177,0.367,0.000,1.539,0.000,0.000,9.440
5855,4.200,0.171,0.369,0.000,1.549,0.000,0.000,9.477
5903,4.200,0.165,0.371,0.000,1.558,0.000,0.000,9.441
5951,4.200,0.159,0.373,0.000,1.567,0.000,0.000,9.408
5999,4.200,0.154,0.375,0.000,1.576,0.000,0.000,9.400
6047,4.200,0.148,0.377,0.000,1.584,0.000,0.000,9.390
6095,4.200,0.143,0.379,0.000,1.592,0.000,0.000,9.377
6143,4.200,0.138,0.381,0.000,1.600,0.000,0.000,9.355
6191,4.200,0.134,0.383,0.000,1.608,0.000,0.000,9.372
6239,4.200,0.129,0.385,0.000,1.615,0.000,0.000,9.373
6287,4.200,0.125,0.386,0.000,1.622,0.000,0.000,9.396
6335,4.200,0.121,0.388,0.000,1.629,0.000,0.000,9.385
6383,4.200,0.118,0.390,0.000,1.636,0.000,0.000,9.310
6431,4.200,0.115,0.391,0.000,1.643,0.000,0.000,9.387
6479,4.200,0.110,0.393,0.000,1.649,0.000,0.000,9.332
6527,4.200,0.107,0.394,0.000,1.655,0.000,0.000,9.290
6575,4.200,0.104,0.396,0.000,1.661,0.000,0.000,9.315
6623,4.200,0.101,0.397,0.000,1.667,0.000,0.000,9.348
6671,4.200,0.098,0.398,0.000,1.672,0.000,0.000,9.318
6719,4.200,0.095,0.400,0.000,1.678,0.000,0.000,9.314
6767,4.200,0.092,0.401,0.000,1.683,0.000,0.000,9.284
6815,4.200,0.089,0.402,0.000,1.688,0.000,0.000,9.301
6863,4.200,0.087,0.403,0.000,1.693,0.000,0.000,9.295
6911,4.200,0.085,0.404,0.000,1.698,0.000,0.000,9.275
6959,4.200,0.082,0.405,0.000,1.702,0.000,0.000,9.295
7007,4.200,0.080,0.407,0.000,1.707,0.000,0.000,9.287
7055,4.200,0.078,0.408,0.000,1.711,0.000,0.000,9.300
7103,4.200,0.076,0.409,0.000,1.716,0.000,0.000,9.327
7151,4.200,0.074,0.410,0.000,1.720,0.000,0.000,9.253
7199,4.200,0.072,0.411,0.000,1.724,0.000,0.000,9.250
7247,4.200,0.070,0.412,0.000,1.728,0.000,0.000,9.260
7295,4.200,0.069,0.412,0.000,1.732,0.000,0.000,9.322
7343,4.200,0.067,0.413,0.000,1.736,0.000,0.000,9.257
7391,4.189,0.000,0.414,0.000,1.738,0.000,0.000,9.264
7439,4.187,0.000,0.414,0.000,1.738,0.000,0.000,9.317
7487,4.185,0.000,0.414,0.000,1.738,0.000,0.000,9.274
7535,4.184,0.000,0.414,0.000,1.738,0.000,0.000,9.264
7583,4.183,0.000,0.414,0.000,1.738,0.000,0.000,9.302
7631,4.182,0.000,0.414,0.000,1.738,0.000,0.000,9.287
7679,4.181,0.000,0.414,0.000,1.738,0.000,0.000,9.249
7727,4.181,0.000,0.414,0.000,1.738,0.000,0.000,9.257
7775,4.180,0.000,0.414,0.000,1.738,0.000,0.000,9.269
7823,4.180,0.000,0.414,0.000,1.738,0.000,0.000,9.272
7871,4.179,0.000,0.414,0.000,1.738,0.000,0.000,9.263
7919,4.179,0.000,0.414,0.000,1.738,0.000,0.000,9.211
7967,4.178,0.000,0.414,0.000,1.738,0.000,0.000,9.270
8015,4.178,0.000,0.414,0.000,1.738,0.000,0.000,9.312
8063,4.178,0.000,0.414,0.000,1.738,0.000,0.000,9.203
8111,4.177,0.000,0.414,0.000,1.738,0.000,0.000,9.232
8159,4.177,0.000,0.414,0.000,1.738,0.000,0.000,9.234
8207,4.177,0.000,0.414,0.000,1.738,0.000,0.000,9.226
8255,4.177,0.000,0.414,0.000,1.738,0.000,0.000,9.241
8303,4.176,0.000,0.414,0.000,1.738,0.000,0.000,9.217
8351,4.176,0.000,0.414,0.000,1.738,0.000,0.000,9.227
8399,4.176,0.000,0.414,0.000,1.738,0.000,0.000,9.264
8447,4.176,0.000,0.414,0.000,1.738,0.000,0.000,9.264
8495,4.175,0.000,0.414,0.000,1.738,0.000,0.000,9.222
8543,4.175,0.000,0.414,0.000,1.738,0.000,0.000,9.232
8591,4.175,0.000,0.414,0.000,1.738,0.000,0.000,9.313
8639,4.175,0.000,0.414,0.000,1.738,0.000,0.000,9.324
8687,4.175,0.000,0.414,0.000,1.738,0.000,0.000,9.325
8735,4.174,0.000,0.414,0.000,1.738,0.000,0.000,9.317
8783,4.174,0.000,0.414,0.000,1.738,0.000,0.000,9.365
8831,4.174,0.000,0.414,0.000,1.738,0.000,0.000,9.401
8879,4.174,0.000,0.414,0.000,1.738,0.000,0.000,9.459
8927,4.174,0.000,0.414,0.000,1.738,0.000,0.000,9.495
8975,4.174,0.000,0.414,0.000,1.738,0.000,0.000,9.502
9023,4.174,0.000,0.414,0.000,1.738,0.000,0.000,9.571
9071,4.173,0.000,0.414,0.000,1.738,0.000,0.000,9.590
9119,4.173,0.000,0.414,0.000,1.738,0.000,0.000,9.642
9167,4.173,0.000,0.414,0.000,1.738,0.000,0.000,9.672
9215,4.173,0.000,0.414,0.000,1.738,0.000,0.000,9.695
9263,4.173,0.000,0.414,0.000,1.738,0.000,0.000,9.761
9311,4.173,0.000,0.414,0.000,1.738,0.000,0.000,9.753
9359,4.173,0.000,0.414,0.000,1.738,0.000,0.000,9.689
9407,4.173,0.000,0.414,0.000,1.738,0.000,0.000,9.684
9455,4.172,0.000,0.414,0.000,1.738,0.000,0.000,9.719
9503,4.172,0.000,0.414,0.000,1.738,0.000,0.000,9.729
9551,4.172,0.000,0.414,0.000,1.738,0.000,0.000,9.738
9599,4.172,0.000,0.414,0.000,1.738,0.000,0.000,9.683
9647,4.172,0.000,0.414,0.000,1.738,0.000,0.000,9.643
9695,4.172,0.000,0.414,0.000,1.738,0.000,0.000,9.669
9743,4.172,0.000,0.414,0.000,1.738,0.000,0.000,9.685
9791,4.172,0.000,0.414,0.000,1.738,0.000,0.000,9.620
9839,4.172,0.000,0.414,0.000,1.738,0.000,0.000,9.635
9887,4.171,0.000,0.414,0.000,1.738,0.000,0.000,9.620
9935,4.171,0.000,0.414,0.000,1.738,0.000,0.000,9.586
9983,4.171,0.000,0.414,0.000,1.738,0.000,0.000,9.607
10031,4.171,0.000,0.414,0.000,1.738,0.000,0.000,9.651
10079,4.171,0.000,0.414,0.000,1.738,0.000,0.000,9.593
10127,4.171,0.000,0.414,0.000,1.738,0.000,0.000,9.589
10175,4.171,0.000,0.414,0.000,1.738,0.000,0.000,9.557
10223,4.171,0.000,0.414,0.000,1.738,0.000,0.000,9.525
10271,4.171,0.000,0.414,0.000,1.738,0.000,0.000,9.520
10319,4.171,0.000,0.414,0.000,1.738,0.000,0.000,9.501
10367,4.171,0.000,0.414,0.000,1.738,0.000,0.000,9.489
10415,4.170,0.000,0.414,0.000,1.738,0.000,0.000,9.477
10463,4.170,0.000,0.414,0.000,1.738,0.000,0.000,9.469
10511,4.170,0.000,0.414,0.000,1.738,0.000,0.000,9.458
10559,4.170,0.000,0.414,0.000,1.738,0.000,0.000,9.466
10607,4.170,0.000,0.414,0.000,1.738,0.000,0.000,9.461
10655,4.170,0.000,0.414,0.000,1.738,0.000,0.000,9.438
10703,4.170,0.000,0.414,0.000,1.738,0.000,0.000,9.413
10751,4.170,0.000,0.414,0.000,1.738,0.000,0.000,9.459
10799,4.170,0.000,0.414,0.000,1.738,0.000,0.000,9.374
10847,4.170,0.000,0.414,0.000,1.738,0.000,0.000,9.374
10895,4.170,0.000,0.414,0.000,1.738,0.000,0.000,9.365
10943,4.170,0.000,0.414,0.000,1.738,0.000,0.000,9.347
10990,3.779,-3.350,0.414,0.013,1.738,0.049,-0.002,9.390
11038,3.737,-3.350,0.414,0.058,1.738,0.217,-0.001,10.145
11086,3.720,-3.350,0.414,0.102,1.738,0.384,0.000,10.734
11134,3.711,-3.350,0.414,0.147,1.738,0.550,0.000,11.296
11182,3.704,-3.350,0.414,0.192,1.738,0.715,0.000,11.685
11230,3.697,-3.350,0.414,0.236,1.738,0.881,0.000,12.097
11278,3.688,-3.350,0.414,0.281,1.738,1.046,0.000,12.326
11326,3.680,-3.350,0.414,0.326,1.738,1.210,0.000,12.559
11374,3.959,0.000,0.414,0.335,1.738,1.245,0.001,12.408
11422,3.985,0.000,0.414,0.335,1.738,1.245,0.000,12.071
11470,3.999,0.000,0.414,0.335,1.738,1.245,0.000,11.628
11518,4.008,0.000,0.414,0.335,1.738,1.245,0.000,11.303
11566,4.014,0.000,0.414,0.335,1.738,1.245,0.000,11.046
11614,4.019,0.000,0.414,0.335,1.738,1.245,0.000,10.811
11662,4.023,0.000,0.414,0.335,1.738,1.245,0.000,10.603
11710,4.027,0.000,0.414,0.335,1.738,1.245,0.000,10.419
11758,4.029,0.000,0.414,0.335,1.738,1.245,0.000,10.243
11806,4.032,0.000,0.414,0.335,1.738,1.245,0.000,10.137
11854,4.034,0.000,0.414,0.335,1.738,1.245,0.000,9.991
11902,4.035,0.000,0.414,0.335,1.738,1.245,0.000,9.882
11950,4.036,0.000,0.414,0.335,1.738,1.245,0.000,9.786
11998,4.037,0.000,0.414,0.335,1.738,1.245,0.000,9.748
12046,4.038,0.000,0.414,0.335,1.738,1.245,0.000,9.636
12094,4.039,0.000,0.414,0.335,1.738,1.245,0.000,9.618
12142,4.040,0.000,0.414,0.335,1.738,1.245,0.000,9.589
12190,4.040,0.000,0.414,0.335,1.738,1.245,0.000,9.530
12238,4.041,0.000,0.414,0.335,1.738,1.245,0.000,9.527
12286,4.041,0.000,0.414,0.335,1.738,1.245,0.000,9.479
12334,4.041,0.000,0.414,0.335,1.738,1.245,0.000,9.426
12382,4.042,0.000,0.414,0.335,1.738,1.245,0.000,9.428
12430,4.042,0.000,0.414,0.335,1.738,1.245,0.000,9.396
12478,4.043,0.000,0.414,0.335,1.738,1.245,0.000,9.372
12526,4.043,0.000,0.414,0.335,1.738,1.245,0.000,9.338
12574,4.043,0.000,0.414,0.335,1.738,1.245,0.000,9.330
12622,4.043,0.000,0.414,0.335,1.738,1.245,0.000,9.322
12670,4.044,0.000,0.414,0.335,1.738,1.245,0.000,9.344
12718,4.044,0.000,0.414,0.335,1.738,1.245,0.000,9.321
12766,4.044,0.000,0.414,0.335,1.738,1.245,0.000,9.305
12814,4.044,0.000,0.414,0.335,1.738,1.245,0.000,9.287
12862,4.044,0.000,0.414,0.335,1.738,1.245,0.000,9.334
12910,4.045,0.000,0.414,0.335,1.738,1.245,0.000,9.289
12958,4.045,0.000,0.414,0.335,1.738,1.245,0.000,9.244
13006,4.045,0.000,0.414,0.335,1.738,1.245,0.000,9.298
13054,4.045,0.000,0.414,0.335,1.738,1.245,0.000,9.296
13102,4.045,0.000,0.414,0.335,1.738,1.245,0.000,9.278
13150,4.045,0.000,0.414,0.335,1.738,1.245,0.000,9.227
13198,4.045,0.000,0.414,0.335,1.738,1.245,0.000,9.283
13246,4.046,0.000,0.414,0.335,1.738,1.245,0.000,9.289
13294,4.046,0.000,0.414,0.335,1.738,1.245,0.000,9.271
13342,4.046,0.000,0.414,0.335,1.738,1.245,0.000,9.297
13390,4.046,0.000,0.414,0.335,1.738,1.245,0.000,9.266
13438,4.046,0.000,0.414,0.335,1.738,1.245,0.000,9.264
13486,4.046,0.000,0.414,0.335,1.738,1.245,0.000,9.277
13534,4.046,0.000,0.414,0.335,1.738,1.245,0.000,9.269
13582,4.046,0.000,0.414,0.335,1.738,1.245,0.000,9.245
13630,4.046,0.000,0.414,0.335,1.738,1.245,0.000,9.293
13678,4.047,0.000,0.414,0.335,1.738,1.245,0.000,9.277
13726,4.046,0.000,0.414,0.335,1.738,1.245,0.000,9.284
13774,4.047,0.000,0.414,0.335,1.738,1.245,0.000,9.299
13822,4.047,0.000,0.414,0.335,1.738,1.245,0.000,9.244
13870,4.047,0.000,0.414,0.335,1.738,1.245,0.000,9.232
13918,4.047,0.000,0.414,0.335,1.738,1.245,0.000,9.314
13966,4.047,0.000,0.414,0.335,1.738,1.245,0.000,9.279
14014,4.047,0.000,0.414,0.335,1.738,1.245,0.000,9.290
14062,4.047,0.000,0.414,0.335,1.738,1.245,0.000,9.267
14110,4.047,0.000,0.414,0.335,1.738,1.245,0.000,9.328
14158,4.047,0.000,0.414,0.335,1.738,1.245,0.000,9.270
14206,4.047,0.000,0.414,0.335,1.738,1.245,0.000,9.306
14254,4.047,0.000,0.414,0.335,1.738,1.245,0.000,9.284
14302,4.047,0.000,0.414,0.335,1.738,1.245,0.000,9.270
14350,4.047,0.000,0.414,0.335,1.738,1.245,0.000,9.305
14398,4.047,0.000,0.414,0.335,1.738,1.245,0.000,9.319
14446,4.047,0.000,0.414,0.335,1.738,1.245,0.000,9.282
14494,4.047,0.000,0.414,0.335,1.738,1.245,0.000,9.328
14542,4.047,0.000,0.414,0.335,1.738,1.245,0.000,9.327
14590,4.048,0.000,0.414,0.335,1.738,1.245,0.000,9.315
14638,4.048,0.000,0.414,0.335,1.738,1.245,0.000,9.342
14686,4.048,0.000,0.414,0.335,1.738,1.245,0.000,9.303
14734,4.048,0.000,0.414,0.335,1.738,1.245,0.000,9.313
14782,4.048,0.000,0.414,0.335,1.738,1.245,0.000,9.366
14830,4.048,0.000,0.414,0.335,1.738,1.245,0.000,9.277
14878,4.048,0.000,0.414,0.335,1.738,1.245,0.000,9.282
14926,4.048,0.000,0.414,0.335,1.738,1.245,0.000,9.294
14972,4.031,0.000,0.414,0.343,1.738,1.276,0.000,9.412
15018,4.052,0.000,0.420,0.343,1.765,1.276,0.000,9.452
15065,3.711,-3.350,0.420,0.370,1.765,1.374,-0.001,9.668
15113,3.674,-3.350,0.420,0.414,1.765,1.539,0.000,10.133
15161,3.652,-3.350,0.420,0.459,1.765,1.702,0.000,10.613
15209,3.636,-3.350,0.420,0.504,1.765,1.865,0.000,11.054
15257,3.623,-3.350,0.420,0.548,1.765,2.027,0.000,11.404
15305,3.610,-3.350,0.420,0.593,1.765,2.189,0.000,11.739
15353,3.597,-3.350,0.420,0.638,1.765,2.350,0.000,12.048
15400,3.804,0.000,0.420,0.679,1.765,2.497,0.004,12.235
15448,3.864,0.000,0.420,0.679,1.765,2.497,0.001,11.984
15496,3.883,0.000,0.420,0.679,1.765,2.497,0.000,11.641
15544,3.892,0.000,0.420,0.679,1.765,2.497,0.000,11.345
15592,3.898,0.000,0.420,0.679,1.765,2.497,0.000,11.061
15640,3.901,0.000,0.420,0.679,1.765,2.497,0.000,10.840
15688,3.904,0.000,0.420,0.679,1.765,2.497,0.000,10.652
15736,3.906,0.000,0.420,0.679,1.765,2.497,0.000,10.469
15784,3.907,0.000,0.420,0.679,1.765,2.497,0.000,10.348
15832,3.908,0.000,0.420,0.679,1.765,2.497,0.000,10.242
15880,3.910,0.000,0.420,0.679,1.765,2.497,0.000,10.152
15928,3.911,0.000,0.420,0.679,1.765,2.497,0.000,10.067
15976,3.912,0.000,0.420,0.679,1.765,2.497,0.000,9.996
16024,3.912,0.000,0.420,0.679,1.765,2.497,0.000,9.971
16072,3.913,0.000,0.420,0.679,1.765,2.497,0.000,9.895
16120,3.914,0.000,0.420,0.679,1.765,2.497,0.000,9.849
16168,3.915,0.000,0.420,0.679,1.765,2.497,0.000,9.804
16216,3.916,0.000,0.420,0.679,1.765,2.497,0.000,9.804
16264,3.917,0.000,0.420,0.679,1.765,2.497,0.000,9.733
16312,3.917,0.000,0.420,0.679,1.765,2.497,0.000,9.728
16360,3.918,0.000,0.420,0.679,1.765,2.497,0.000,9.692
16408,3.919,0.000,0.420,0.679,1.765,2.497,0.000,9.680
16456,3.920,0.000,0.420,0.679,1.765,2.497,0.000,9.675
16504,3.921,0.000,0.420,0.679,1.765,2.497,0.000,9.715
16552,3.922,0.000,0.420,0.679,1.765,2.497,0.000,9.633
16600,3.923,0.000,0.420,0.679,1.765,2.497,0.000,9.648
16648,3.924,0.000,0.420,0.679,1.765,2.497,0.000,9.638
16696,3.925,0.000,0.420,0.679,1.765,2.497,0.000,9.626
16744,3.925,0.000,0.420,0.679,1.765,2.497,0.000,9.641
16792,3.926,0.000,0.420,0.679,1.765,2.497,0.000,9.619
16840,3.927,0.000,0.420,0.679,1.765,2.497,0.000,9.577
16888,3.928,0.000,0.420,0.679,1.765,2.497,0.000,9.623
16936,3.929,0.000,0.420,0.679,1.765,2.497,0.000,9.576
16984,3.929,0.000,0.420,0.679,1.765,2.497,0.000,9.574
17032,3.930,0.000,0.420,0.679,1.765,2.497,0.000,9.574
17080,3.930,0.000,0.420,0.679,1.765,2.497,0.000,9.628
17128,3.931,0.000,0.420,0.679,1.765,2.497,0.000,9.549
17176,3.931,0.000,0.420,0.679,1.765,2.497,0.000,9.543
17224,3.932,0.000,0.420,0.679,1.765,2.497,0.000,9.579
17272,3.932,0.000,0.420,0.679,1.765,2.497,0.000,9.561
17320,3.932,0.000,0.420,0.679,1.765,2.497,0.000,9.521
17368,3.932,0.000,0.420,0.679,1.765,2.497,0.000,9.602
17416,3.933,0.000,0.420,0.679,1.765,2.497,0.000,9.629
17464,3.933,0.000,0.420,0.679,1.765,2.497,0.000,9.581
17512,3.933,0.000,0.420,0.679,1.765,2.497,0.000,9.613
17560,3.933,0.000,0.420,0.679,1.765,2.497,0.000,9.566
17608,3.933,0.000,0.420,0.679,1.765,2.497,0.000,9.585
17656,3.933,0.000,0.420,0.679,1.765,2.497,0.000,9.599
17704,3.933,0.000,0.420,0.679,1.765,2.497,0.000,9.600
17752,3.933,0.000,0.420,0.679,1.765,2.497,0.000,9.612
17800,3.933,0.000,0.420,0.679,1.765,2.497,0.000,9.601
17848,3.934,0.000,0.420,0.679,1.765,2.497,0.000,9.608
17896,3.934,0.000,0.420,0.679,1.765,2.497,0.000,9.599
17944,3.934,0.000,0.420,0.679,1.765,2.497,0.000,9.625
17992,3.934,0.000,0.420,0.679,1.765,2.497,0.000,9.642
18040,3.934,0.000,0.420,0.679,1.765,2.497,0.000,9.629
18088,3.934,0.000,0.420,0.679,1.765,2.497,0.000,9.649
18136,3.934,0.000,0.420,0.679,1.765,2.497,0.000,9.651
18184,3.934,0.000,0.420,0.679,1.765,2.497,0.000,9.637
18232,3.934,0.000,0.420,0.679,1.765,2.497,0.000,9.632
18280,3.934,0.000,0.420,0.679,1.765,2.497,0.000,9.632
18328,3.934,0.000,0.420,0.679,1.765,2.497,0.000,9.669
18376,3.934,0.000,0.420,0.679,1.765,2.497,0.000,9.649
18424,3.934,0.000,0.420,0.679,1.765,2.497,0.000,9.678
18472,3.934,0.000,0.420,0.679,1.765,2.497,0.000,9.641
18520,3.934,0.000,0.420,0.679,1.765,2.497,0.000,9.668
18568,3.934,0.000,0.420,0.679,1.765,2.497,0.000,9.663
18616,3.934,0.000,0.420,0.679,1.765,2.497,0.000,9.662
18664,3.935,0.000,0.420,0.679,1.765,2.497,0.000,9.711
18712,3.934,0.000,0.420,0.679,1.765,2.497,0.000,9.672
18760,3.935,0.000,0.420,0.679,1.765,2.497,0.000,9.656
18808,3.935,0.000,0.420,0.679,1.765,2.497,0.000,9.715
18856,3.935,0.000,0.420,0.679,1.765,2.497,0.000,9.724
18904,3.935,0.000,0.420,0.679,1.765,2.497,0.000,9.758
18952,3.934,0.000,0.420,0.679,1.765,2.497,0.000,9.688
18999,3.709,-3.000,0.420,0.680,1.765,2.503,-0.007,9.725
19046,3.920,0.000,0.420,0.687,1.765,2.528,0.000,9.807
19092,3.937,0.000,0.426,0.687,1.790,2.528,0.000,9.861
19139,3.615,-3.350,0.426,0.726,1.790,2.670,-0.001,10.135
19187,3.588,-3.350,0.426,0.771,1.790,2.831,-0.001,10.525
19235,3.569,-3.350,0.426,0.815,1.790,2.991,0.000,10.942
19283,3.553,-3.350,0.426,0.860,1.790,3.150,0.000,11.355
19331,3.537,-3.350,0.426,0.905,1.790,3.308,0.000,11.660
19379,3.523,-3.350,0.426,0.949,1.790,3.466,0.000,11.988
19427,3.508,-3.350,0.426,0.994,1.790,3.623,0.000,12.280
19474,3.743,0.000,0.426,1.022,1.790,3.721,0.001,12.474
19522,3.780,0.000,0.426,1.022,1.790,3.721,0.000,12.201
19570,3.795,0.000,0.426,1.022,1.790,3.721,0.000,11.938
19618,3.804,0.000,0.426,1.022,1.790,3.721,0.000,11.659
19666,3.810,0.000,0.426,1.022,1.790,3.721,0.000,11.475
19714,3.814,0.000,0.426,1.022,1.790,3.721,0.000,11.346
19762,3.816,0.000,0.426,1.022,1.790,3.721,0.000,11.164
19810,3.818,0.000,0.426,1.022,1.790,3.721,0.000,11.057
19858,3.819,0.000,0.426,1.022,1.790,3.721,0.000,11.000
19906,3.820,0.000,0.426,1.022,1.790,3.721,0.000,10.942
19954,3.821,0.000,0.426,1.022,1.790,3.721,0.000,10.877
20002,3.822,0.000,0.426,1.022,1.790,3.721,0.000,10.854
20050,3.823,0.000,0.426,1.022,1.790,3.721,0.000,10.820
20098,3.823,0.000,0.426,1.022,1.790,3.721,0.000,10.775
20146,3.824,0.000,0.426,1.022,1.790,3.721,0.000,10.826
20194,3.825,0.000,0.426,1.022,1.790,3.721,0.000,10.776
20242,3.825,0.000,0.426,1.022,1.790,3.721,0.000,10.769
20290,3.825,0.000,0.426,1.022,1.790,3.721,0.000,10.719
20338,3.826,0.000,0.426,1.022,1.790,3.721,0.000,10.778
20386,3.826,0.000,0.426,1.022,1.790,3.721,0.000,10.697
20434,3.827,0.000,0.426,1.022,1.790,3.721,0.000,10.696
20482,3.827,0.000,0.426,1.022,1.790,3.721,0.000,10.682
20530,3.827,0.000,0.426,1.022,1.790,3.721,0.000,10.688
20578,3.828,0.000,0.426,1.022,1.790,3.721,0.000,10.673
20626,3.828,0.000,0.426,1.022,1.790,3.721,0.000,10.620
20674,3.829,0.000,0.426,1.022,1.790,3.721,0.000,10.618
20722,3.829,0.000,0.426,1.022,1.790,3.721,0.000,10.607
20770,3.829,0.000,0.426,1.022,1.790,3.721,0.000,10.569
20818,3.829,0.000,0.426,1.022,1.790,3.721,0.000,10.554
20866,3.830,0.000,0.426,1.022,1.790,3.721,0.000,10.556
20914,3.830,0.000,0.426,1.022,1.790,3.721,0.000,10.580
20962,3.831,0.000,0.426,1.022,1.790,3.721,0.000,10.538
21010,3.831,0.000,0.426,1.022,1.790,3.721,0.000,10.547
21058,3.831,0.000,0.426,1.022,1.790,3.721,0.000,10.544
21106,3.832,0.000,0.426,1.022,1.790,3.721,0.000,10.494
21154,3.832,0.000,0.426,1.022,1.790,3.721,0.000,10.482
21202,3.832,0.000,0.426,1.022,1.790,3.721,0.000,10.471
21250,3.833,0.000,0.426,1.022,1.790,3.721,0.000,10.480
21298,3.833,0.000,0.426,1.022,1.790,3.721,0.000,10.433
21346,3.834,0.000,0.426,1.022,1.790,3.721,0.000,10.439
21394,3.834,0.000,0.426,1.022,1.790,3.721,0.000,10.419
21442,3.835,0.000,0.426,1.022,1.790,3.721,0.000,10.401
21490,3.835,0.000,0.426,1.022,1.790,3.721,0.000,10.404
21538,3.836,0.000,0.426,1.022,1.790,3.721,0.000,10.362
21586,3.836,0.000,0.426,1.022,1.790,3.721,0.000,10.358
21634,3.837,0.000,0.426,1.022,1.790,3.721,0.000,10.397
21682,3.837,0.000,0.426,1.022,1.790,3.721,0.000,10.359
21730,3.838,0.000,0.426,1.022,1.790,3.721,0.000,10.362
21778,3.839,0.000,0.426,1.022,1.790,3.721,0.000,10.379
21826,3.839,0.000,0.426,1.022,1.790,3.721,0.000,10.380
21874,3.840,0.000,0.426,1.022,1.790,3.721,0.000,10.339
21922,3.841,0.000,0.426,1.022,1.790,3.721,0.000,10.373
21970,3.841,0.000,0.426,1.022,1.790,3.721,0.000,10.295
22018,3.842,0.000,0.426,1.022,1.790,3.721,0.000,10.310
22066,3.843,0.000,0.426,1.022,1.790,3.721,0.000,10.306
22114,3.843,0.000,0.426,1.022,1.790,3.721,0.000,10.333
22162,3.844,0.000,0.426,1.022,1.790,3.721,0.000,10.313
22210,3.845,0.000,0.426,1.022,1.790,3.721,0.000,10.321
22258,3.845,0.000,0.426,1.022,1.790,3.721,0.000,10.285
22306,3.846,0.000,0.426,1.022,1.790,3.721,0.000,10.298
22354,3.846,0.000,0.426,1.022,1.790,3.721,0.000,10.293
22402,3.847,0.000,0.426,1.022,1.790,3.721,0.000,10.297
22450,3.847,0.000,0.426,1.022,1.790,3.721,0.000,10.293
22498,3.847,0.000,0.426,1.022,1.790,3.721,0.000,10.275
22546,3.848,0.000,0.426,1.022,1.790,3.721,0.000,10.244
22594,3.848,0.000,0.426,1.022,1.790,3.721,0.000,10.301
22642,3.848,0.000,0.426,1.022,1.790,3.721,0.000,10.240
22690,3.849,0.000,0.426,1.022,1.790,3.721,0.000,10.257
22738,3.849,0.000,0.426,1.022,1.790,3.721,0.000,10.279
22786,3.849,0.000,0.426,1.022,1.790,3.721,0.000,10.255
22834,3.849,0.000,0.426,1.022,1.790,3.721,0.000,10.256
22882,3.849,0.000,0.426,1.022,1.790,3.721,0.000,10.278
22930,3.849,0.000,0.426,1.022,1.790,3.721,0.000,10.270
22978,3.849,0.000,0.426,1.022,1.790,3.721,0.000,10.211
23026,3.850,0.000,0.426,1.022,1.790,3.721,0.000,10.256
23072,3.817,0.000,0.426,1.030,1.790,3.751,0.002,10.318
23119,3.865,0.000,0.433,1.030,1.815,3.751,-0.147,10.313
23166,3.585,-3.350,0.433,1.038,1.815,3.778,-0.003,10.409
23214,3.527,-3.350,0.433,1.082,1.815,3.936,-0.001,10.780
23262,3.502,-3.350,0.433,1.127,1.815,4.093,0.000,11.146
23310,3.484,-3.350,0.433,1.172,1.815,4.249,0.000,11.521
23358,3.466,-3.350,0.433,1.216,1.815,4.405,0.000,11.831
23406,3.449,-3.350,0.433,1.261,1.815,4.559,0.000,12.175
23454,3.432,-3.350,0.433,1.306,1.815,4.713,0.000,12.460
23502,3.415,-3.350,0.433,1.350,1.815,4.866,0.000,12.696
23549,3.667,0.000,0.433,1.365,1.815,4.917,0.001,12.695
23597,3.692,0.000,0.433,1.365,1.815,4.917,0.000,12.374
23645,3.704,0.000,0.433,1.365,1.815,4.917,0.000,12.043
23693,3.711,0.000,0.433,1.365,1.815,4.917,0.000,11.770
23741,3.716,0.000,0.433,1.365,1.815,4.917,0.000,11.615
23789,3.720,0.000,0.433,1.365,1.815,4.917,0.000,11.398
23837,3.722,0.000,0.433,1.365,1.815,4.917,0.000,11.278
23885,3.724,0.000,0.433,1.365,1.815,4.917,0.000,11.122
23933,3.726,0.000,0.433,1.365,1.815,4.917,0.000,11.020
23981,3.726,0.000,0.433,1.365,1.815,4.917,0.000,10.892
24029,3.727,0.000,0.433,1.365,1.815,4.917,0.000,10.809
24077,3.728,0.000,0.433,1.365,1.815,4.917,0.000,10.777
24125,3.729,0.000,0.433,1.365,1.815,4.917,0.000,10.731
24173,3.729,0.000,0.433,1.365,1.815,4.917,0.000,10.629
24221,3.730,0.000,0.433,1.365,1.815,4.917,0.000,10.624
24269,3.730,0.000,0.433,1.365,1.815,4.917,0.000,10.541
24317,3.731,0.000,0.433,1.365,1.815,4.917,0.000,10.582
24365,3.731,0.000,0.433,1.365,1.815,4.917,0.000,10.481
24413,3.732,0.000,0.433,1.365,1.815,4.917,0.000,10.503
24461,3.732,0.000,0.433,1.365,1.815,4.917,0.000,10.414
24509,3.732,0.000,0.433,1.365,1.815,4.917,0.000,10.407
24557,3.733,0.000,0.433,1.365,1.815,4.917,0.000,10.373
24605,3.733,0.000,0.433,1.365,1.815,4.917,0.000,10.382
24653,3.733,0.000,0.433,1.365,1.815,4.917,0.000,10.370
24701,3.733,0.000,0.433,1.365,1.815,4.917,0.000,10.336
24749,3.734,0.000,0.433,1.365,1.815,4.917,0.000,10.380
24797,3.734,0.000,0.433,1.365,1.815,4.917,0.000,10.282
24845,3.734,0.000,0.433,1.365,1.815,4.917,0.000,10.308
24893,3.734,0.000,0.433,1.365,1.815,4.917,0.000,10.285
24941,3.734,0.000,0.433,1.365,1.815,4.917,0.000,10.264
24989,3.735,0.000,0.433,1.365,1.815,4.917,0.000,10.269
25037,3.735,0.000,0.433,1.365,1.815,4.917,0.000,10.241
25085,3.735,0.000,0.433,1.365,1.815,4.917,0.000,10.324
25133,3.735,0.000,0.433,1.365,1.815,4.917,0.000,10.255
25181,3.735,0.000,0.433,1.365,1.815,4.917,0.000,10.237
25229,3.735,0.000,0.433,1.365,1.815,4.917,0.000,10.284
25277,3.736,0.000,0.433,1.365,1.815,4.917,0.000,10.222
25325,3.736,0.000,0.433,1.365,1.815,4.917,0.000,10.219
25373,3.736,0.000,0.433,1.365,1.815,4.917,0.000,10.237
25421,3.736,0.000,0.433,1.365,1.815,4.917,0.000,10.214
25469,3.736,0.000,0.433,1.365,1.815,4.917,0.000,10.222
25517,3.736,0.000,0.433,1.365,1.815,4.917,0.000,10.256
25565,3.736,0.000,0.433,1.365,1.815,4.917,0.000,10.191
25613,3.737,0.000,0.433,1.365,1.815,4.917,0.000,10.201
25661,3.737,0.000,0.433,1.365,1.815,4.917,0.000,10.167
25709,3.737,0.000,0.433,1.365,1.815,4.917,0.000,10.149
25757,3.737,0.000,0.433,1.365,1.815,4.917,0.000,10.151
25805,3.737,0.000,0.433,1.365,1.815,4.917,0.000,10.168
25853,3.737,0.000,0.433,1.365,1.815,4.917,0.000,10.217
25901,3.737,0.000,0.433,1.365,1.815,4.917,0.000,10.168
25949,3.738,0.000,0.433,1.365,1.815,4.917,0.000,10.189
25997,3.738,0.000,0.433,1.365,1.815,4.917,0.000,10.163
26045,3.738,0.000,0.433,1.365,1.815,4.917,0.000,10.167
26093,3.738,0.000,0.433,1.365,1.815,4.917,0.000,10.130
26141,3.738,0.000,0.433,1.365,1.815,4.917,0.000,10.143
26189,3.738,0.000,0.433,1.365,1.815,4.917,0.000,10.182
26237,3.738,0.000,0.433,1.365,1.815,4.917,0.000,10.157
26285,3.738,0.000,0.433,1.365,1.815,4.917,0.000,10.161
26333,3.739,0.000,0.433,1.365,1.815,4.917,0.000,10.117
26381,3.739,0.000,0.433,1.365,1.815,4.917,0.000,10.149
26429,3.739,0.000,0.433,1.365,1.815,4.917,0.000,10.147
26477,3.739,0.000,0.433,1.365,1.815,4.917,0.000,10.147
26525,3.739,0.000,0.433,1.365,1.815,4.917,0.000,10.128
26573,3.739,0.000,0.433,1.365,1.815,4.917,0.000,10.085
26621,3.739,0.000,0.433,1.365,1.815,4.917,0.000,10.109
26669,3.740,0.000,0.433,1.365,1.815,4.917,0.000,10.114
26717,3.740,0.000,0.433,1.365,1.815,4.917,0.000,10.109
26765,3.740,0.000,0.433,1.365,1.815,4.917,0.000,10.059
26813,3.740,0.000,0.433,1.365,1.815,4.917,0.000,10.055
26861,3.740,0.000,0.433,1.365,1.815,4.917,0.000,10.066
26909,3.740,0.000,0.433,1.365,1.815,4.917,0.000,10.074
26957,3.740,0.000,0.433,1.365,1.815,4.917,0.000,10.079
27005,3.740,0.000,0.433,1.365,1.815,4.917,0.000,10.023
27053,3.741,0.000,0.433,1.365,1.815,4.917,0.000,10.041
27101,3.741,0.000,0.433,1.365,1.815,4.917,0.000,10.060
27147,3.722,0.000,0.433,1.374,1.815,4.946,0.001,10.106
27193,3.743,0.000,0.439,1.374,1.840,4.946,0.000,10.154
27240,3.461,-3.350,0.439,1.394,1.840,5.017,-0.001,10.245
27288,3.420,-3.350,0.439,1.439,1.840,5.171,-0.001,10.629
27336,3.397,-3.350,0.439,1.484,1.840,5.323,0.000,10.987
27384,3.378,-3.350,0.439,1.528,1.840,5.475,0.000,11.349
27432,3.361,-3.350,0.439,1.573,1.840,5.625,0.000,11.697
27480,3.345,-3.350,0.439,1.618,1.840,5.775,0.000,12.008
27528,3.330,-3.350,0.439,1.662,1.840,5.924,0.000,12.306
27576,3.317,-3.350,0.439,1.707,1.840,6.072,0.000,12.532
27623,3.587,0.000,0.439,1.709,1.840,6.079,0.001,12.433
27671,3.608,0.000,0.439,1.709,1.840,6.079,0.000,12.069
27719,3.619,0.000,0.439,1.709,1.840,6.079,0.000,11.712
27767,3.625,0.000,0.439,1.709,1.840,6.079,0.000,11.447
27815,3.629,0.000,0.439,1.709,1.840,6.079,0.000,11.253
27863,3.632,0.000,0.439,1.709,1.840,6.079,0.000,11.021
27911,3.634,0.000,0.439,1.709,1.840,6.079,0.000,10.911
27959,3.636,0.000,0.439,1.709,1.840,6.079,0.000,10.780
28007,3.638,0.000,0.439,1.709,1.840,6.079,0.000,10.643
28055,3.639,0.000,0.439,1.709,1.840,6.079,0.000,10.542
28103,3.640,0.000,0.439,1.709,1.840,6.079,0.000,10.469
28151,3.641,0.000,0.439,1.709,1.840,6.079,0.000,10.416
28199,3.642,0.000,0.439,1.709,1.840,6.079,0.000,10.350
28247,3.642,0.000,0.439,1.709,1.840,6.079,0.000,10.275
28295,3.643,0.000,0.439,1.709,1.840,6.079,0.000,10.201
28343,3.643,0.000,0.439,1.709,1.840,6.079,0.000,10.175
28391,3.643,0.000,0.439,1.709,1.840,6.079,0.000,10.150
28439,3.644,0.000,0.439,1.709,1.840,6.079,0.000,10.080
28487,3.644,0.000,0.439,1.709,1.840,6.079,0.000,10.035
28535,3.644,0.000,0.439,1.709,1.840,6.079,0.000,10.012
28583,3.645,0.000,0.439,1.709,1.840,6.079,0.000,10.011
28631,3.645,0.000,0.439,1.709,1.840,6.079,0.000,9.992
28679,3.645,0.000,0.439,1.709,1.840,6.079,0.000,9.953
28727,3.645,0.000,0.439,1.709,1.840,6.079,0.000,9.919
28775,3.646,0.000,0.439,1.709,1.840,6.079,0.000,9.933
28823,3.646,0.000,0.439,1.709,1.840,6.079,0.000,9.921
28871,3.646,0.000,0.439,1.709,1.840,6.079,0.000,9.915
28919,3.646,0.000,0.439,1.709,1.840,6.079,0.000,9.885
28967,3.646,0.000,0.439,1.709,1.840,6.079,0.000,9.899
29015,3.647,0.000,0.439,1.709,1.840,6.079,0.000,9.876
29063,3.647,0.000,0.439,1.709,1.840,6.079,0.000,9.851
29111,3.647,0.000,0.439,1.709,1.840,6.079,0.000,9.890
29159,3.647,0.000,0.439,1.709,1.840,6.079,0.000,9.830
29207,3.647,0.000,0.439,1.709,1.840,6.079,0.000,9.851
29255,3.647,0.000,0.439,1.709,1.840,6.079,0.000,9.854
29303,3.647,0.000,0.439,1.709,1.840,6.079,0.000,9.836
29351,3.647,0.000,0.439,1.709,1.840,6.079,0.000,9.796
29399,3.647,0.000,0.439,1.709,1.840,6.079,0.000,9.787
29447,3.647,0.000,0.439,1.709,1.840,6.079,0.000,9.795
29495,3.647,0.000,0.439,1.709,1.840,6.079,0.000,9.800
29543,3.648,0.000,0.439,1.709,1.840,6.079,0.000,9.793
29591,3.648,0.000,0.439,1.709,1.840,6.079,0.000,9.792
29639,3.648,0.000,0.439,1.709,1.840,6.079,0.000,9.769
29687,3.648,0.000,0.439,1.709,1.840,6.079,0.000,9.743
29735,3.648,0.000,0.439,1.709,1.840,6.079,0.000,9.750
29783,3.648,0.000,0.439,1.709,1.840,6.079,0.000,9.707
29831,3.648,0.000,0.439,1.709,1.840,6.079,0.000,9.766
29879,3.648,0.000,0.439,1.709,1.840,6.079,0.000,9.709
29927,3.648,0.000,0.439,1.709,1.840,6.079,0.000,9.713
29975,3.648,0.000,0.439,1.709,1.840,6.079,0.000,9.665
30023,3.648,0.000,0.439,1.709,1.840,6.079,0.000,9.707
30071,3.648,0.000,0.439,1.709,1.840,6.079,0.000,9.670
30119,3.648,0.000,0.439,1.709,1.840,6.079,0.000,9.649
30167,3.648,0.000,0.439,1.709,1.840,6.079,0.000,9.690
30215,3.649,0.000,0.439,1.709,1.840,6.079,0.000,9.704
30263,3.649,0.000,0.439,1.709,1.840,6.079,0.000,9.648
30311,3.649,0.000,0.439,1.709,1.840,6.079,0.000,9.704
30359,3.649,0.000,0.439,1.709,1.840,6.079,0.000,9.694
30407,3.649,0.000,0.439,1.709,1.840,6.079,0.000,9.725
30455,3.649,0.000,0.439,1.709,1.840,6.079,0.000,9.749
30503,3.649,0.000,0.439,1.709,1.840,6.079,0.000,9.733
30551,3.649,0.000,0.439,1.709,1.840,6.079,0.000,9.816
30599,3.649,0.000,0.439,1.709,1.840,6.079,0.000,9.830
30647,3.649,0.000,0.439,1.709,1.840,6.079,0.000,9.844
30695,3.649,0.000,0.439,1.709,1.840,6.079,0.000,9.881
30743,3.649,0.000,0.439,1.709,1.840,6.079,0.000,9.869
30791,3.649,0.000,0.439,1.709,1.840,6.079,0.000,9.981
30839,3.649,0.000,0.439,1.709,1.840,6.079,0.000,9.986
30887,3.649,0.000,0.439,1.709,1.840,6.079,0.000,9.988
30935,3.649,0.000,0.439,1.709,1.840,6.079,0.000,10.046
30983,3.650,0.000,0.439,1.709,1.840,6.079,0.000,10.086
31031,3.649,0.000,0.439,1.709,1.840,6.079,0.000,10.109
31079,3.650,0.000,0.439,1.709,1.840,6.079,0.000,10.079
31127,3.650,0.000,0.439,1.709,1.840,6.079,0.000,10.114
31175,3.650,0.000,0.439,1.709,1.840,6.079,0.000,10.133
31221,3.637,0.000,0.439,1.717,1.840,6.107,0.000,10.169
31267,3.651,0.000,0.445,1.717,1.863,6.107,0.000,10.234
31314,3.353,-3.350,0.445,1.751,1.863,6.221,-0.001,10.387
31362,3.312,-3.350,0.445,1.795,1.863,6.369,-0.001,10.838
31410,3.286,-3.350,0.445,1.840,1.863,6.517,0.000,11.359
31458,3.268,-3.350,0.445,1.885,1.863,6.663,0.000,11.808
31506,3.254,-3.350,0.445,1.929,1.863,6.809,0.000,12.162
31554,3.239,-3.350,0.445,1.974,1.863,6.954,0.000,12.512
31602,3.224,-3.350,0.445,2.019,1.863,7.098,0.000,12.832
31649,3.470,0.000,0.445,2.052,1.863,7.206,0.002,13.061
31697,3.510,0.000,0.445,2.052,1.863,7.206,0.000,12.737
31745,3.525,0.000,0.445,2.052,1.863,7.206,0.000,12.356
31793,3.536,0.000,0.445,2.052,1.863,7.206,0.000,11.981
31841,3.546,0.000,0.445,2.052,1.863,7.206,0.000,11.727
31889,3.553,0.000,0.445,2.052,1.863,7.206,0.000,11.446
31937,3.558,0.000,0.445,2.052,1.863,7.206,0.000,11.195
31985,3.563,0.000,0.445,2.052,1.863,7.206,0.000,11.046
32033,3.566,0.000,0.445,2.052,1.863,7.206,0.000,10.870
32081,3.568,0.000,0.445,2.052,1.863,7.206,0.000,10.715
32129,3.570,0.000,0.445,2.052,1.863,7.206,0.000,10.606
32177,3.571,0.000,0.445,2.052,1.863,7.206,0.000,10.498
32225,3.573,0.000,0.445,2.052,1.863,7.206,0.000,10.396
32273,3.574,0.000,0.445,2.052,1.863,7.206,0.000,10.303
32321,3.575,0.000,0.445,2.052,1.863,7.206,0.000,10.209
32369,3.575,0.000,0.445,2.052,1.863,7.206,0.000,10.164
32417,3.576,0.000,0.445,2.052,1.863,7.206,0.000,10.089
32465,3.577,0.000,0.445,2.052,1.863,7.206,0.000,10.056
32513,3.578,0.000,0.445,2.052,1.863,7.206,0.000,10.022
32561,3.578,0.000,0.445,2.052,1.863,7.206,0.000,9.959
32609,3.579,0.000,0.445,2.052,1.863,7.206,0.000,9.948
32657,3.579,0.000,0.445,2.052,1.863,7.206,0.000,9.871
32705,3.580,0.000,0.445,2.052,1.863,7.206,0.000,9.820
32753,3.580,0.000,0.445,2.052,1.863,7.206,0.000,9.776
32801,3.581,0.000,0.445,2.052,1.863,7.206,0.000,9.745
32849,3.581,0.000,0.445,2.052,1.863,7.206,0.000,9.781
32897,3.581,0.000,0.445,2.052,1.863,7.206,0.000,9.721
32945,3.582,0.000,0.445,2.052,1.863,7.206,0.000,9.684
32993,3.582,0.000,0.445,2.052,1.863,7.206,0.000,9.683
33041,3.582,0.000,0.445,2.052,1.863,7.206,0.000,9.648
33089,3.582,0.000,0.445,2.052,1.863,7.206,0.000,9.600
33137,3.583,0.000,0.445,2.052,1.863,7.206,0.000,9.569
33185,3.583,0.000,0.445,2.052,1.863,7.206,0.000,9.573
33233,3.583,0.000,0.445,2.052,1.863,7.206,0.000,9.571
33281,3.583,0.000,0.445,2.052,1.863,7.206,0.000,9.547
33329,3.583,0.000,0.445,2.052,1.863,7.206,0.000,9.586
33377,3.584,0.000,0.445,2.052,1.863,7.206,0.000,9.532
33425,3.584,0.000,0.445,2.052,1.863,7.206,0.000,9.540
33473,3.584,0.000,0.445,2.052,1.863,7.206,0.000,9.521
33521,3.584,0.000,0.445,2.052,1.863,7.206,0.000,9.526
33569,3.584,0.000,0.445,2.052,1.863,7.206,0.000,9.482
33617,3.584,0.000,0.445,2.052,1.863,7.206,0.000,9.488
33665,3.584,0.000,0.445,2.052,1.863,7.206,0.000,9.462
33713,3.584,0.000,0.445,2.052,1.863,7.206,0.000,9.446
33761,3.584,0.000,0.445,2.052,1.863,7.206,0.000,9.439
33809,3.585,0.000,0.445,2.052,1.863,7.206,0.000,9.428
33857,3.585,0.000,0.445,2.052,1.863,7.206,0.000,9.439
33905,3.585,0.000,0.445,2.052,1.863,7.206,0.000,9.393
33953,3.585,0.000,0.445,2.052,1.863,7.206,0.000,9.378
34001,3.585,0.000,0.445,2.052,1.863,7.206,0.000,9.403
34049,3.585,0.000,0.445,2.052,1.863,7.206,0.000,9.377
34097,3.585,0.000,0.445,2.052,1.863,7.206,0.000,9.335
34145,3.585,0.000,0.445,2.052,1.863,7.206,0.000,9.367
34193,3.585,0.000,0.445,2.052,1.863,7.206,0.000,9.382
34241,3.585,0.000,0.445,2.052,1.863,7.206,0.000,9.362
34289,3.585,0.000,0.445,2.052,1.863,7.206,0.000,9.307
34337,3.585,0.000,0.445,2.052,1.863,7.206,0.000,9.275
34385,3.586,0.000,0.445,2.052,1.863,7.206,0.000,9.265
34433,3.586,0.000,0.445,2.052,1.863,7.206,0.000,9.312
34481,3.586,0.000,0.445,2.052,1.863,7.206,0.000,9.272
34529,3.586,0.000,0.445,2.052,1.863,7.206,0.000,9.290
34577,3.586,0.000,0.445,2.052,1.863,7.206,0.000,9.273
34625,3.586,0.000,0.445,2.052,1.863,7.206,0.000,9.193
34673,3.586,0.000,0.445,2.052,1.863,7.206,0.000,9.208
34721,3.586,0.000,0.445,2.052,1.863,7.206,0.000,9.226
34769,3.586,0.000,0.445,2.052,1.863,7.206,0.000,9.195
34817,3.586,0.000,0.445,2.052,1.863,7.206,0.000,9.184
34865,3.586,0.000,0.445,2.052,1.863,7.206,0.000,9.195
34913,3.586,0.000,0.445,2.052,1.863,7.206,0.000,9.194
34961,3.586,0.000,0.445,2.052,1.863,7.206,0.000,9.216
35009,3.586,0.000,0.445,2.052,1.863,7.206,0.000,9.203
35057,3.586,0.000,0.445,2.052,1.863,7.206,0.000,9.172
35105,3.586,0.000,0.445,2.052,1.863,7.206,0.000,9.133
35153,3.586,0.000,0.445,2.052,1.863,7.206,0.000,9.080
35201,3.586,0.000,0.445,2.052,1.863,7.206,0.000,9.138
35248,3.340,-3.000,0.445,2.061,1.863,7.234,-0.002,9.138
35295,3.749,2.250,0.449,2.061,1.877,7.234,0.002,9.187
35341,3.339,-3.350,0.451,2.062,1.887,7.240,-0.005,9.264
35389,3.249,-3.350,0.451,2.107,1.887,7.387,-0.001,9.664
35437,3.206,-3.350,0.451,2.152,1.887,7.531,-0.001,10.226
35485,3.177,-3.350,0.451,2.196,1.887,7.674,-0.001,10.759
35533,3.151,-3.350,0.451,2.241,1.887,7.815,-0.001,11.194
35581,3.123,-3.350,0.451,2.286,1.887,7.955,-0.001,11.741
35629,3.093,-3.350,0.451,2.331,1.887,8.094,-0.001,12.152
35677,3.061,-3.350,0.451,2.375,1.887,8.232,-0.001,12.532
35724,3.396,0.000,0.451,2.396,1.887,8.294,0.001,12.716
35772,3.435,0.000,0.451,2.396,1.887,8.294,0.000,12.217
35820,3.449,0.000,0.451,2.396,1.887,8.294,0.000,11.742
35868,3.455,0.000,0.451,2.396,1.887,8.294,0.000,11.357
35916,3.460,0.000,0.451,2.396,1.887,8.294,0.000,11.036
35964,3.464,0.000,0.451,2.396,1.887,8.294,0.000,10.753
36012,3.468,0.000,0.451,2.396,1.887,8.294,0.000,10.530
36060,3.473,0.000,0.451,2.396,1.887,8.294,0.000,10.314
36108,3.478,0.000,0.451,2.396,1.887,8.294,0.000,10.148
36156,3.482,0.000,0.451,2.396,1.887,8.294,0.000,9.945
36204,3.486,0.000,0.451,2.396,1.887,8.294,0.000,9.840
36252,3.490,0.000,0.451,2.396,1.887,8.294,0.000,9.716
36300,3.493,0.000,0.451,2.396,1.887,8.294,0.000,9.576
36348,3.495,0.000,0.451,2.396,1.887,8.294,0.000,9.522
36396,3.498,0.000,0.451,2.396,1.887,8.294,0.000,9.450
36444,3.499,0.000,0.451,2.396,1.887,8.294,0.000,9.309
36492,3.501,0.000,0.451,2.396,1.887,8.294,0.000,9.239
36540,3.503,0.000,0.451,2.396,1.887,8.294,0.000,9.164
36588,3.505,0.000,0.451,2.396,1.887,8.294,0.000,9.165
36636,3.506,0.000,0.451,2.396,1.887,8.294,0.000,9.128
36684,3.507,0.000,0.451,2.396,1.887,8.294,0.000,9.075
36732,3.508,0.000,0.451,2.396,1.887,8.294,0.000,9.012
36780,3.509,0.000,0.451,2.396,1.887,8.294,0.000,9.003
36828,3.510,0.000,0.451,2.396,1.887,8.294,0.000,8.976
36876,3.511,0.000,0.451,2.396,1.887,8.294,0.000,8.944
36924,3.512,0.000,0.451,2.396,1.887,8.294,0.000,8.911
36972,3.513,0.000,0.451,2.396,1.887,8.294,0.000,8.939
37020,3.513,0.000,0.451,2.396,1.887,8.294,0.000,8.940
37068,3.514,0.000,0.451,2.396,1.887,8.294,0.000,8.908
37116,3.515,0.000,0.451,2.396,1.887,8.294,0.000,8.871
37164,3.515,0.000,0.451,2.396,1.887,8.294,0.000,8.875
37212,3.515,0.000,0.451,2.396,1.887,8.294,0.000,8.837
37260,3.516,0.000,0.451,2.396,1.887,8.294,0.000,8.841
37308,3.516,0.000,0.451,2.396,1.887,8.294,0.000,8.849
37356,3.517,0.000,0.451,2.396,1.887,8.294,0.000,8.773
37404,3.517,0.000,0.451,2.396,1.887,8.294,0.000,8.795
37452,3.517,0.000,0.451,2.396,1.887,8.294,0.000,8.795
37500,3.518,0.000,0.451,2.396,1.887,8.294,0.000,8.810
37548,3.518,0.000,0.451,2.396,1.887,8.294,0.000,8.790
37596,3.518,0.000,0.451,2.396,1.887,8.294,0.000,8.746
37644,3.519,0.000,0.451,2.396,1.887,8.294,0.000,8.741
37692,3.519,0.000,0.451,2.396,1.887,8.294,0.000,8.754
37740,3.519,0.000,0.451,2.396,1.887,8.294,0.000,8.760
37788,3.520,0.000,0.451,2.396,1.887,8.294,0.000,8.685
37836,3.520,0.000,0.451,2.396,1.887,8.294,0.000,8.711
37884,3.520,0.000,0.451,2.396,1.887,8.294,0.000,8.690
37932,3.520,0.000,0.451,2.396,1.887,8.294,0.000,8.698
37980,3.521,0.000,0.451,2.396,1.887,8.294,0.000,8.661
38028,3.521,0.000,0.451,2.396,1.887,8.294,0.000,8.678
38076,3.521,0.000,0.451,2.396,1.887,8.294,0.000,8.687
38124,3.521,0.000,0.451,2.396,1.887,8.294,0.000,8.663
38172,3.521,0.000,0.451,2.396,1.887,8.294,0.000,8.629
38220,3.522,0.000,0.451,2.396,1.887,8.294,0.000,8.627
38268,3.522,0.000,0.451,2.396,1.887,8.294,0.000,8.655
38316,3.522,0.000,0.451,2.396,1.887,8.294,0.000,8.670
38364,3.522,0.000,0.451,2.396,1.887,8.294,0.000,8.574
38412,3.522,0.000,0.451,2.396,1.887,8.294,0.000,8.633
38460,3.523,0.000,0.451,2.396,1.887,8.294,0.000,8.582
38508,3.523,0.000,0.451,2.396,1.887,8.294,0.000,8.578
38556,3.523,0.000,0.451,2.396,1.887,8.294,0.000,8.603
38604,3.523,0.000,0.451,2.396,1.887,8.294,0.000,8.535
38652,3.523,0.000,0.451,2.396,1.887,8.294,0.000,8.581
38700,3.523,0.000,0.451,2.396,1.887,8.294,0.000,8.558
38748,3.524,0.000,0.451,2.396,1.887,8.294,0.000,8.532
38796,3.524,0.000,0.451,2.396,1.887,8.294,0.000,8.495
38844,3.524,0.000,0.451,2.396,1.887,8.294,0.000,8.510
38892,3.524,0.000,0.451,2.396,1.887,8.294,0.000,8.478
38940,3.524,0.000,0.451,2.396,1.887,8.294,0.000,8.515
38988,3.524,0.000,0.451,2.396,1.887,8.294,0.000,8.514
39036,3.524,0.000,0.451,2.396,1.887,8.294,0.000,8.510
39084,3.525,0.000,0.451,2.396,1.887,8.294,0.000,8.497
39132,3.525,0.000,0.451,2.396,1.887,8.294,0.000,8.500
39180,3.525,0.000,0.451,2.396,1.887,8.294,0.000,8.500
39228,3.525,0.000,0.451,2.396,1.887,8.294,0.000,8.463
39276,3.525,0.000,0.451,2.396,1.887,8.294,0.000,8.467
39322,3.505,0.000,0.451,2.404,1.887,8.321,0.000,8.535
39368,3.530,0.000,0.458,2.404,1.910,8.321,0.000,8.594
39415,3.182,-3.350,0.458,2.419,1.910,8.369,-0.003,8.689
39463,3.095,-3.350,0.458,2.464,1.910,8.509,-0.001,9.398
39511,3.038,-3.350,0.458,2.508,1.910,8.646,-0.001,10.147
39559,2.987,-3.350,0.458,2.553,1.910,8.781,-0.001,10.876
39607,2.928,-3.350,0.458,2.598,1.910,8.913,-0.001,11.590
39655,2.859,-3.350,0.458,2.642,1.910,9.042,-0.002,12.285
39703,2.775,-3.350,0.458,2.687,1.910,9.168,-0.002,13.030
39751,2.669,-3.350,0.458,2.732,1.910,9.290,-0.003,13.934
39798,3.311,0.000,0.458,2.739,1.910,9.310,0.001,13.755
39846,3.349,0.000,0.458,2.739,1.910,9.310,0.001,13.041
39894,3.365,0.000,0.458,2.739,1.910,9.310,0.000,12.321
39942,3.373,0.000,0.458,2.739,1.910,9.310,0.000,11.730
39990,3.376,0.000,0.458,2.739,1.910,9.310,0.000,11.252
40038,3.378,0.000,0.458,2.739,1.910,9.310,0.000,10.858
40086,3.380,0.000,0.458,2.739,1.910,9.310,0.000,10.524
40134,3.381,0.000,0.458,2.739,1.910,9.310,0.000,10.226
40182,3.383,0.000,0.458,2.739,1.910,9.310,0.000,10.001
40230,3.384,0.000,0.458,2.739,1.910,9.310,0.000,9.805
40278,3.385,0.000,0.458,2.739,1.910,9.310,0.000,9.587
40326,3.386,0.000,0.458,2.739,1.910,9.310,0.000,9.427
40374,3.388,0.000,0.458,2.739,1.910,9.310,0.000,9.350
40422,3.389,0.000,0.458,2.739,1.910,9.310,0.000,9.185
40470,3.390,0.000,0.458,2.739,1.910,9.310,0.000,9.091
40518,3.392,0.000,0.458,2.739,1.910,9.310,0.000,8.987
40566,3.393,0.000,0.458,2.739,1.910,9.310,0.000,8.901
40614,3.395,0.000,0.458,2.739,1.910,9.310,0.000,8.791
40662,3.396,0.000,0.458,2.739,1.910,9.310,0.000,8.763
40710,3.397,0.000,0.458,2.739,1.910,9.310,0.000,8.714
40758,3.399,0.000,0.458,2.739,1.910,9.310,0.000,8.620
40806,3.400,0.000,0.458,2.739,1.910,9.310,0.000,8.607
40854,3.401,0.000,0.458,2.739,1.910,9.310,0.000,8.550
40902,3.402,0.000,0.458,2.739,1.910,9.310,0.000,8.502
40950,3.403,0.000,0.458,2.739,1.910,9.310,0.000,8.449
40998,3.404,0.000,0.458,2.739,1.910,9.310,0.000,8.472
41046,3.405,0.000,0.458,2.739,1.910,9.310,0.000,8.434
41094,3.406,0.000,0.458,2.739,1.910,9.310,0.000,8.396
41142,3.407,0.000,0.458,2.739,1.910,9.310,0.000,8.348
41190,3.407,0.000,0.458,2.739,1.910,9.310,0.000,8.336
41238,3.408,0.000,0.458,2.739,1.910,9.310,0.000,8.332
41286,3.409,0.000,0.458,2.739,1.910,9.310,0.000,8.332
41334,3.409,0.000,0.458,2.739,1.910,9.310,0.000,8.365
41382,3.410,0.000,0.458,2.739,1.910,9.310,0.000,8.352
41430,3.410,0.000,0.458,2.739,1.910,9.310,0.000,8.397
41478,3.411,0.000,0.458,2.739,1.910,9.310,0.000,8.428
41526,3.411,0.000,0.458,2.739,1.910,9.310,0.000,8.413
41574,3.412,0.000,0.458,2.739,1.910,9.310,0.000,8.432
41622,3.412,0.000,0.458,2.739,1.910,9.310,0.000,8.456
41670,3.413,0.000,0.458,2.739,1.910,9.310,0.000,8.505
41718,3.413,0.000,0.458,2.739,1.910,9.310,0.000,8.555
41766,3.413,0.000,0.458,2.739,1.910,9.310,0.000,8.579
41814,3.414,0.000,0.458,2.739,1.910,9.310,0.000,8.618
41862,3.414,0.000,0.458,2.739,1.910,9.310,0.000,8.615
41910,3.414,0.000,0.458,2.739,1.910,9.310,0.000,8.615
41958,3.415,0.000,0.458,2.739,1.910,9.310,0.000,8.670
42006,3.415,0.000,0.458,2.739,1.910,9.310,0.000,8.730
42054,3.415,0.000,0.458,2.739,1.910,9.310,0.000,8.735
42102,3.415,0.000,0.458,2.739,1.910,9.310,0.000,8.717
42150,3.416,0.000,0.458,2.739,1.910,9.310,0.000,8.772
42198,3.416,0.000,0.458,2.739,1.910,9.310,0.000,8.718
42246,3.416,0.000,0.458,2.739,1.910,9.310,0.000,8.737
42294,3.416,0.000,0.458,2.739,1.910,9.310,0.000,8.749
42342,3.417,0.000,0.458,2.739,1.910,9.310,0.000,8.741
42390,3.417,0.000,0.458,2.739,1.910,9.310,0.000,8.725
42438,3.417,0.000,0.458,2.739,1.910,9.310,0.000,8.696
42486,3.417,0.000,0.458,2.739,1.910,9.310,0.000,8.727
42534,3.417,0.000,0.458,2.739,1.910,9.310,0.000,8.689
42582,3.418,0.000,0.458,2.739,1.910,9.310,0.000,8.691
42630,3.418,0.000,0.458,2.739,1.910,9.310,0.000,8.694
42678,3.418,0.000,0.458,2.739,1.910,9.310,0.000,8.682
42726,3.418,0.000,0.458,2.739,1.910,9.310,0.000,8.677
42774,3.418,0.000,0.458,2.739,1.910,9.310,0.000,8.652
42822,3.418,0.000,0.458,2.739,1.910,9.310,0.000,8.663
42870,3.418,0.000,0.458,2.739,1.910,9.310,0.000,8.636
42918,3.419,0.000,0.458,2.739,1.910,9.310,0.000,8.598
42966,3.419,0.000,0.458,2.739,1.910,9.310,0.000,8.596
43014,3.419,0.000,0.458,2.739,1.910,9.310,0.000,8.581
43062,3.419,0.000,0.458,2.739,1.910,9.310,0.000,8.619
43110,3.419,0.000,0.458,2.739,1.910,9.310,0.000,8.572
43158,3.419,0.000,0.458,2.739,1.910,9.310,0.000,8.600
43206,3.419,0.000,0.458,2.739,1.910,9.310,0.000,8.617
43254,3.420,0.000,0.458,2.739,1.910,9.310,0.000,8.570
43302,3.420,0.000,0.458,2.739,1.910,9.310,0.000,8.582
43350,3.420,0.000,0.458,2.739,1.910,9.310,0.000,8.604
43396,3.398,0.000,0.458,2.747,1.910,9.334,0.001,8.786
43442,3.424,0.000,0.464,2.747,1.933,9.334,0.000,8.786
43489,2.583,-3.350,0.464,2.775,1.933,9.410,-0.008,9.344
43501,2.492,-3.350,0.464,2.787,1.933,9.439,-0.008,9.763