File: data/T05/HPPC/5.csv
time_s,voltage_v,current_a,chargecapacity_ah,dischargecapacity_ah,charge_energy_wh,discharge_energy_wh,voltagedot_v_per_s,temp_degc
1,4.024,0.000,0.000,0.000,0.000,0.000,0.000,9.951
48,4.024,0.000,0.000,0.000,0.000,0.000,0.000,9.997
95,4.024,0.000,0.000,0.000,0.000,0.000,0.000,9.951
142,4.024,0.000,0.000,0.000,0.000,0.000,0.000,9.939
189,4.024,0.000,0.000,0.000,0.000,0.000,0.000,9.967
236,4.024,0.000,0.000,0.000,0.000,0.000,0.000,9.934
283,4.024,0.000,0.000,0.000,0.000,0.000,0.000,9.956
330,4.024,0.000,0.000,0.000,0.000,0.000,0.000,9.951
377,4.024,0.000,0.000,0.000,0.000,0.000,0.000,9.948
424,4.024,0.000,0.000,0.000,0.000,0.000,0.000,9.891
471,4.024,0.000,0.000,0.000,0.000,0.000,0.000,9.921
518,4.024,0.000,0.000,0.000,0.000,0.000,0.000,9.918
565,4.024,0.000,0.000,0.000,0.000,0.000,0.000,9.913
612,4.024,0.000,0.000,0.000,0.000,0.000,0.000,9.929
659,4.024,0.000,0.000,0.000,0.000,0.000,0.000,9.930
706,4.024,0.000,0.000,0.000,0.000,0.000,0.000,9.950
753,4.024,0.000,0.000,0.000,0.000,0.000,0.000,9.962
800,4.024,0.000,0.000,0.000,0.000,0.000,0.000,9.883
847,4.024,0.000,0.000,0.000,0.000,0.000,0.000,9.920
894,4.024,0.000,0.000,0.000,0.000,0.000,0.000,9.938
941,4.024,0.000,0.000,0.000,0.000,0.000,0.000,9.940
988,4.024,0.000,0.000,0.000,0.000,0.000,0.000,9.904
1035,4.024,0.000,0.000,0.000,0.000,0.000,0.000,9.914
1082,4.024,0.000,0.000,0.000,0.000,0.000,0.000,9.910
1129,4.024,0.000,0.000,0.000,0.000,0.000,0.000,9.900
1176,4.024,0.000,0.000,0.000,0.000,0.000,0.000,9.934
1223,4.024,0.000,0.000,0.000,0.000,0.000,0.000,9.870
1270,4.024,0.000,0.000,0.000,0.000,0.000,0.000,9.884
1317,4.024,0.000,0.000,0.000,0.000,0.000,0.000,9.880
1364,4.024,0.000,0.000,0.000,0.000,0.000,0.000,9.912
1411,4.024,0.000,0.000,0.000,0.000,0.000,0.000,9.947
1458,4.024,0.000,0.000,0.000,0.000,0.000,0.000,9.960
1505,4.024,0.000,0.000,0.000,0.000,0.000,0.000,9.944
1552,4.024,0.000,0.000,0.000,0.000,0.000,0.000,9.933
1599,4.024,0.000,0.000,0.000,0.000,0.000,0.000,9.932
1646,4.024,0.000,0.000,0.000,0.000,0.000,0.000,9.914
1693,4.024,0.000,0.000,0.000,0.000,0.000,0.000,9.930
1740,4.024,0.000,0.000,0.000,0.000,0.000,0.000,9.940
1787,4.024,0.000,0.000,0.000,0.000,0.000,0.000,9.913
1834,4.024,0.000,0.000,0.000,0.000,0.000,0.000,9.948
1881,4.024,0.000,0.000,0.000,0.000,0.000,0.000,9.913
1928,4.024,0.000,0.000,0.000,0.000,0.000,0.000,9.974
1975,4.024,0.000,0.000,0.000,0.000,0.000,0.000,9.947
2022,4.024,0.000,0.000,0.000,0.000,0.000,0.000,9.977
2069,4.024,0.000,0.000,0.000,0.000,0.000,0.000,9.978
2116,4.024,0.000,0.000,0.000,0.000,0.000,0.000,9.968
2163,4.024,0.000,0.000,0.000,0.000,0.000,0.000,9.941
2210,4.024,0.000,0.000,0.000,0.000,0.000,0.000,9.948
2257,4.024,0.000,0.000,0.000,0.000,0.000,0.000,9.980
2304,4.024,0.000,0.000,0.000,0.000,0.000,0.000,9.999
2351,4.024,0.000,0.000,0.000,0.000,0.000,0.000,9.987
2398,4.024,0.000,0.000,0.000,0.000,0.000,0.000,9.999
2445,4.024,0.000,0.000,0.000,0.000,0.000,0.000,10.047
2492,4.024,0.000,0.000,0.000,0.000,0.000,0.000,10.005
2539,4.024,0.000,0.000,0.000,0.000,0.000,0.000,10.011
2586,4.024,0.000,0.000,0.000,0.000,0.000,0.000,10.036
2633,4.024,0.000,0.000,0.000,0.000,0.000,0.000,10.077
2680,4.024,0.000,0.000,0.000,0.000,0.000,0.000,10.030
2727,4.024,0.000,0.000,0.000,0.000,0.000,0.000,10.029
2774,4.024,0.000,0.000,0.000,0.000,0.000,0.000,10.025
2821,4.024,0.000,0.000,0.000,0.000,0.000,0.000,10.041
2868,4.024,0.000,0.000,0.000,0.000,0.000,0.000,10.041
2915,4.024,0.000,0.000,0.000,0.000,0.000,0.000,10.051
2962,4.024,0.000,0.000,0.000,0.000,0.000,0.000,9.983
3009,4.024,0.000,0.000,0.000,0.000,0.000,0.000,9.973
3056,4.024,0.000,0.000,0.000,0.000,0.000,0.000,9.965
3103,4.024,0.000,0.000,0.000,0.000,0.000,0.000,9.961
3150,4.024,0.000,0.000,0.000,0.000,0.000,0.000,9.947
3197,4.024,0.000,0.000,0.000,0.000,0.000,0.000,9.992
3244,4.024,0.000,0.000,0.000,0.000,0.000,0.000,9.923
3291,4.024,0.000,0.000,0.000,0.000,0.000,0.000,9.916
3338,4.024,0.000,0.000,0.000,0.000,0.000,0.000,9.922
3385,4.024,0.000,0.000,0.000,0.000,0.000,0.000,9.886
3432,4.024,0.000,0.000,0.000,0.000,0.000,0.000,9.890
3479,4.024,0.000,0.000,0.000,0.000,0.000,0.000,9.858
3526,4.024,0.000,0.000,0.000,0.000,0.000,0.000,9.883
3573,4.024,0.000,0.000,0.000,0.000,0.000,0.000,9.872
3619,4.170,1.625,0.009,0.000,0.036,0.000,0.001,9.854
3666,4.195,1.625,0.030,0.000,0.124,0.000,0.000,10.035
3713,4.200,1.499,0.050,0.000,0.210,0.000,0.000,10.217
3760,4.200,1.382,0.069,0.000,0.289,0.000,0.000,10.376
3807,4.200,1.293,0.086,0.000,0.362,0.000,0.000,10.503
3854,4.200,1.218,0.103,0.000,0.431,0.000,0.000,10.575
3901,4.200,1.151,0.118,0.000,0.496,0.000,0.000,10.639
3948,4.200,1.089,0.133,0.000,0.557,0.000,0.000,10.649
3995,4.200,1.033,0.147,0.000,0.615,0.000,0.000,10.723
4042,4.200,0.980,0.160,0.000,0.670,0.000,0.000,10.749
4089,4.200,0.929,0.172,0.000,0.723,0.000,0.000,10.779
4136,4.200,0.882,0.184,0.000,0.772,0.000,0.000,10.789
4183,4.200,0.837,0.195,0.000,0.819,0.000,0.000,10.728
4230,4.200,0.795,0.206,0.000,0.864,0.000,0.000,10.678
4277,4.200,0.754,0.216,0.000,0.907,0.000,0.000,10.682
4324,4.200,0.715,0.226,0.000,0.947,0.000,0.000,10.696
4371,4.200,0.679,0.235,0.000,0.985,0.000,0.000,10.654
4418,4.200,0.644,0.243,0.000,1.021,0.000,0.000,10.604
4465,4.200,0.612,0.252,0.000,1.056,0.000,0.000,10.569
4512,4.200,0.580,0.259,0.000,1.088,0.000,0.000,10.493
4559,4.200,0.551,0.267,0.000,1.119,0.000,0.000,10.456
4606,4.200,0.523,0.274,0.000,1.149,0.000,0.000,10.436
4653,4.200,0.496,0.280,0.000,1.177,0.000,0.000,10.385
4700,4.200,0.471,0.287,0.000,1.203,0.000,0.000,10.331
4747,4.200,0.448,0.293,0.000,1.229,0.000,0.000,10.344
4794,4.200,0.426,0.298,0.000,1.252,0.000,0.000,10.272
4841,4.200,0.405,0.304,0.000,1.275,0.000,0.000,10.172
4888,4.200,0.384,0.309,0.000,1.297,0.000,0.000,10.194
4935,4.200,0.366,0.314,0.000,1.317,0.000,0.000,10.085
4982,4.200,0.349,0.319,0.000,1.337,0.000,0.000,10.106
5029,4.200,0.332,0.323,0.000,1.356,0.000,0.000,9.955
5076,4.200,0.316,0.327,0.000,1.373,0.000,0.000,9.933
5123,4.200,0.302,0.331,0.000,1.390,0.000,0.000,9.912
5170,4.200,0.288,0.335,0.000,1.407,0.000,0.000,9.861
5217,4.200,0.275,0.339,0.000,1.422,0.000,0.000,9.834
5264,4.200,0.262,0.342,0.000,1.437,0.000,0.000,9.800
5311,4.200,0.251,0.346,0.000,1.451,0.000,0.000,9.754
5358,4.200,0.240,0.349,0.000,1.464,0.000,0.000,9.698
5405,4.200,0.229,0.352,0.000,1.477,0.000,0.000,9.680
5452,4.200,0.220,0.355,0.000,1.489,0.000,0.000,9.650
5499,4.200,0.210,0.358,0.000,1.501,0.000,0.000,9.617
5546,4.200,0.202,0.360,0.000,1.512,0.000,0.000,9.582
5593,4.200,0.193,0.363,0.000,1.523,0.000,0.000,9.551
5640,4.200,0.186,0.365,0.000,1.534,0.000,0.000,9.523
5687,4.200,0.179,0.368,0.000,1.544,0.000,0.000,9.481
5734,4.200,0.171,0.370,0.000,1.553,0.000,0.000,9.464
5781,4.200,0.165,0.372,0.000,1.562,0.000,0.000,9.446
5828,4.200,0.158,0.374,0.000,1.571,0.000,0.000,9.419
5875,4.200,0.152,0.376,0.000,1.580,0.000,0.000,9.388
5922,4.200,0.147,0.378,0.000,1.588,0.000,0.000,9.368
5969,4.200,0.141,0.380,0.000,1.596,0.000,0.000,9.343
6016,4.200,0.136,0.382,0.000,1.603,0.000,0.000,9.350
6063,4.200,0.131,0.384,0.000,1.611,0.000,0.000,9.297
6110,4.200,0.127,0.385,0.000,1.618,0.000,0.000,9.292
6157,4.200,0.122,0.387,0.000,1.625,0.000,0.000,9.320
6204,4.200,0.118,0.389,0.000,1.631,0.000,0.000,9.221
6251,4.200,0.114,0.390,0.000,1.638,0.000,0.000,9.224
6298,4.200,0.110,0.392,0.000,1.644,0.000,0.000,9.187
6345,4.200,0.107,0.393,0.000,1.650,0.000,0.000,9.229
6392,4.200,0.103,0.394,0.000,1.656,0.000,0.000,9.205
6439,4.200,0.100,0.396,0.000,1.661,0.000,0.000,9.187
6486,4.200,0.097,0.397,0.000,1.667,0.000,0.000,9.147
6533,4.200,0.094,0.398,0.000,1.672,0.000,0.000,9.197
6580,4.200,0.091,0.399,0.000,1.677,0.000,0.000,9.131
6627,4.200,0.088,0.401,0.000,1.682,0.000,0.000,9.128
6674,4.200,0.086,0.402,0.000,1.686,0.000,0.000,9.170
6721,4.200,0.083,0.403,0.000,1.691,0.000,0.000,9.122
6768,4.200,0.081,0.404,0.000,1.696,0.000,0.000,9.126
6815,4.200,0.078,0.405,0.000,1.700,0.000,0.000,9.105
6862,4.200,0.076,0.406,0.000,1.704,0.000,0.000,9.105
6909,4.200,0.074,0.407,0.000,1.708,0.000,0.000,9.099
6956,4.200,0.072,0.408,0.000,1.712,0.000,0.000,9.111
7003,4.200,0.070,0.409,0.000,1.716,0.000,0.000,9.110
7050,4.200,0.068,0.410,0.000,1.720,0.000,0.000,9.085
7097,4.200,0.066,0.411,0.000,1.723,0.000,0.000,9.072
7143,4.189,0.000,0.411,0.000,1.725,0.000,0.000,9.066
7190,4.187,0.000,0.411,0.000,1.725,0.000,0.000,9.062
7237,4.186,0.000,0.411,0.000,1.725,0.000,0.000,9.087
7284,4.185,0.000,0.411,0.000,1.725,0.000,0.000,9.058
7331,4.184,0.000,0.411,0.000,1.725,0.000,0.000,9.087
7378,4.183,0.000,0.411,0.000,1.725,0.000,0.000,9.097
7425,4.183,0.000,0.411,0.000,1.725,0.000,0.000,9.035
7472,4.182,0.000,0.411,0.000,1.725,0.000,0.000,9.050
7519,4.182,0.000,0.411,0.000,1.725,0.000,0.000,9.031
7566,4.181,0.000,0.411,0.000,1.725,0.000,0.000,9.012
7613,4.181,0.000,0.411,0.000,1.725,0.000,0.000,9.027
7660,4.180,0.000,0.411,0.000,1.725,0.000,0.000,9.040
7707,4.180,0.000,0.411,0.000,1.725,0.000,0.000,9.057
7754,4.180,0.000,0.411,0.000,1.725,0.000,0.000,9.034
7801,4.179,0.000,0.411,0.000,1.725,0.000,0.000,9.025
7848,4.179,0.000,0.411,0.000,1.725,0.000,0.000,9.063
7895,4.179,0.000,0.411,0.000,1.725,0.000,0.000,9.016
7942,4.179,0.000,0.411,0.000,1.725,0.000,0.000,9.003
7989,4.178,0.000,0.411,0.000,1.725,0.000,0.000,9.006
8036,4.178,0.000,0.411,0.000,1.725,0.000,0.000,8.995
8083,4.178,0.000,0.411,0.000,1.725,0.000,0.000,9.051
8130,4.178,0.000,0.411,0.000,1.725,0.000,0.000,9.027
8177,4.177,0.000,0.411,0.000,1.725,0.000,0.000,9.000
8224,4.177,0.000,0.411,0.000,1.725,0.000,0.000,8.991
8271,4.177,0.000,0.411,0.000,1.725,0.000,0.000,9.033
8318,4.177,0.000,0.411,0.000,1.725,0.000,0.000,9.050
8365,4.177,0.000,0.411,0.000,1.725,0.000,0.000,9.042
8412,4.176,0.000,0.411,0.000,1.725,0.000,0.000,9.008
8459,4.176,0.000,0.411,0.000,1.725,0.000,0.000,8.994
8506,4.176,0.000,0.411,0.000,1.725,0.000,0.000,9.002
8553,4.176,0.000,0.411,0.000,1.725,0.000,0.000,8.994
8600,4.176,0.000,0.411,0.000,1.725,0.000,0.000,9.069
8647,4.176,0.000,0.411,0.000,1.725,0.000,0.000,9.071
8694,4.175,0.000,0.411,0.000,1.725,0.000,0.000,9.103
8741,4.175,0.000,0.411,0.000,1.725,0.000,0.000,9.115
8788,4.175,0.000,0.411,0.000,1.725,0.000,0.000,9.121
8835,4.175,0.000,0.411,0.000,1.725,0.000,0.000,9.141
8882,4.175,0.000,0.411,0.000,1.725,0.000,0.000,9.177
8929,4.175,0.000,0.411,0.000,1.725,0.000,0.000,9.225
8976,4.175,0.000,0.411,0.000,1.725,0.000,0.000,9.255
9023,4.174,0.000,0.411,0.000,1.725,0.000,0.000,9.323
9070,4.174,0.000,0.411,0.000,1.725,0.000,0.000,9.343
9117,4.174,0.000,0.411,0.000,1.725,0.000,0.000,9.382
9164,4.174,0.000,0.411,0.000,1.725,0.000,0.000,9.399
9211,4.174,0.000,0.411,0.000,1.725,0.000,0.000,9.429
9258,4.174,0.000,0.411,0.000,1.725,0.000,0.000,9.439
9305,4.174,0.000,0.411,0.000,1.725,0.000,0.000,9.449
9352,4.174,0.000,0.411,0.000,1.725,0.000,0.000,9.421
9399,4.174,0.000,0.411,0.000,1.725,0.000,0.000,9.430
9446,4.174,0.000,0.411,0.000,1.725,0.000,0.000,9.488
9493,4.173,0.000,0.411,0.000,1.725,0.000,0.000,9.460
9540,4.173,0.000,0.411,0.000,1.725,0.000,0.000,9.440
9587,4.173,0.000,0.411,0.000,1.725,0.000,0.000,9.448
9634,4.173,0.000,0.411,0.000,1.725,0.000,0.000,9.396
9681,4.173,0.000,0.411,0.000,1.725,0.000,0.000,9.413
9728,4.173,0.000,0.411,0.000,1.725,0.000,0.000,9.423
9775,4.173,0.000,0.411,0.000,1.725,0.000,0.000,9.431
9822,4.173,0.000,0.411,0.000,1.725,0.000,0.000,9.417
9869,4.173,0.000,0.411,0.000,1.725,0.000,0.000,9.373
9916,4.173,0.000,0.411,0.000,1.725,0.000,0.000,9.385
9963,4.173,0.000,0.411,0.000,1.725,0.000,0.000,9.347
10010,4.172,0.000,0.411,0.000,1.725,0.000,0.000,9.368
10057,4.172,0.000,0.411,0.000,1.725,0.000,0.000,9.387
10104,4.172,0.000,0.411,0.000,1.725,0.000,0.000,9.333
10151,4.172,0.000,0.411,0.000,1.725,0.000,0.000,9.327
10198,4.172,0.000,0.411,0.000,1.725,0.000,0.000,9.321
10245,4.172,0.000,0.411,0.000,1.725,0.000,0.000,9.280
10292,4.172,0.000,0.411,0.000,1.725,0.000,0.000,9.243
10339,4.172,0.000,0.411,0.000,1.725,0.000,0.000,9.283
10386,4.172,0.000,0.411,0.000,1.725,0.000,0.000,9.252
10433,4.172,0.000,0.411,0.000,1.725,0.000,0.000,9.259
10480,4.172,0.000,0.411,0.000,1.725,0.000,0.000,9.250
10527,4.172,0.000,0.411,0.000,1.725,0.000,0.000,9.212
10574,4.172,0.000,0.411,0.000,1.725,0.000,0.000,9.179
10621,4.172,0.000,0.411,0.000,1.725,0.000,0.000,9.210
10668,4.172,0.000,0.411,0.000,1.725,0.000,0.000,9.170
10714,3.826,-3.350,0.411,0.002,1.725,0.007,-0.009,9.198
10761,3.761,-3.350,0.411,0.046,1.725,0.173,-0.001,9.689
10808,3.744,-3.350,0.411,0.089,1.725,0.337,0.000,10.498
10855,3.736,-3.350,0.411,0.133,1.725,0.500,0.000,11.241
10902,3.731,-3.350,0.411,0.177,1.725,0.664,0.000,11.831
10949,3.726,-3.350,0.411,0.221,1.725,0.827,0.000,12.460
10996,3.720,-3.350,0.411,0.264,1.725,0.990,0.000,12.949
11043,3.712,-3.350,0.411,0.308,1.725,1.152,0.000,13.408
11089,3.953,0.000,0.411,0.335,1.725,1.252,0.001,13.830
11136,3.988,0.000,0.411,0.335,1.725,1.252,0.000,13.547
11183,4.003,0.000,0.411,0.335,1.725,1.252,0.000,13.242
11230,4.012,0.000,0.411,0.335,1.725,1.252,0.000,12.937
11277,4.018,0.000,0.411,0.335,1.725,1.252,0.000,12.688
11324,4.023,0.000,0.411,0.335,1.725,1.252,0.000,12.333
11371,4.027,0.000,0.411,0.335,1.725,1.252,0.000,12.152
11418,4.030,0.000,0.411,0.335,1.725,1.252,0.000,11.887
11465,4.033,0.000,0.411,0.335,1.725,1.252,0.000,11.640
11512,4.035,0.000,0.411,0.335,1.725,1.252,0.000,11.420
11559,4.037,0.000,0.411,0.335,1.725,1.252,0.000,11.242
11606,4.038,0.000,0.411,0.335,1.725,1.252,0.000,11.078
11653,4.039,0.000,0.411,0.335,1.725,1.252,0.000,10.931
11700,4.040,0.000,0.411,0.335,1.725,1.252,0.000,10.756
11747,4.041,0.000,0.411,0.335,1.725,1.252,0.000,10.579
11794,4.041,0.000,0.411,0.335,1.725,1.252,0.000,10.488
11841,4.042,0.000,0.411,0.335,1.725,1.252,0.000,10.332
11888,4.042,0.000,0.411,0.335,1.725,1.252,0.000,10.182
11935,4.042,0.000,0.411,0.335,1.725,1.252,0.000,10.092
11982,4.043,0.000,0.411,0.335,1.725,1.252,0.000,10.045
12029,4.043,0.000,0.411,0.335,1.725,1.252,0.000,9.950
12076,4.043,0.000,0.411,0.335,1.725,1.252,0.000,9.881
12123,4.043,0.000,0.411,0.335,1.725,1.252,0.000,9.827
12170,4.044,0.000,0.411,0.335,1.725,1.252,0.000,9.753
12217,4.044,0.000,0.411,0.335,1.725,1.252,0.000,9.681
12264,4.044,0.000,0.411,0.335,1.725,1.252,0.000,9.629
12311,4.044,0.000,0.411,0.335,1.725,1.252,0.000,9.583
12358,4.045,0.000,0.411,0.335,1.725,1.252,0.000,9.498
12405,4.045,0.000,0.411,0.335,1.725,1.252,0.000,9.440
12452,4.045,0.000,0.411,0.335,1.725,1.252,0.000,9.450
12499,4.045,0.000,0.411,0.335,1.725,1.252,0.000,9.412
12546,4.045,0.000,0.411,0.335,1.725,1.252,0.000,9.359
12593,4.045,0.000,0.411,0.335,1.725,1.252,0.000,9.337
12640,4.045,0.000,0.411,0.335,1.725,1.252,0.000,9.265
12687,4.045,0.000,0.411,0.335,1.725,1.252,0.000,9.309
12734,4.046,0.000,0.411,0.335,1.725,1.252,0.000,9.270
12781,4.046,0.000,0.411,0.335,1.725,1.252,0.000,9.238
12828,4.046,0.000,0.411,0.335,1.725,1.252,0.000,9.221
12875,4.046,0.000,0.411,0.335,1.725,1.252,0.000,9.203
12922,4.046,0.000,0.411,0.335,1.725,1.252,0.000,9.160
12969,4.046,0.000,0.411,0.335,1.725,1.252,0.000,9.179
13016,4.046,0.000,0.411,0.335,1.725,1.252,0.000,9.163
13063,4.046,0.000,0.411,0.335,1.725,1.252,0.000,9.166
13110,4.046,0.000,0.411,0.335,1.725,1.252,0.000,9.180
13157,4.046,0.000,0.411,0.335,1.725,1.252,0.000,9.135
13204,4.046,0.000,0.411,0.335,1.725,1.252,0.000,9.083
13251,4.046,0.000,0.411,0.335,1.725,1.252,0.000,9.149
13298,4.046,0.000,0.411,0.335,1.725,1.252,0.000,9.163
13345,4.047,0.000,0.411,0.335,1.725,1.252,0.000,9.129
13392,4.047,0.000,0.411,0.335,1.725,1.252,0.000,9.084
13439,4.047,0.000,0.411,0.335,1.725,1.252,0.000,9.120
13486,4.047,0.000,0.411,0.335,1.725,1.252,0.000,9.081
13533,4.047,0.000,0.411,0.335,1.725,1.252,0.000,9.062
13580,4.047,0.000,0.411,0.335,1.725,1.252,0.000,9.097
13627,4.047,0.000,0.411,0.335,1.725,1.252,0.000,9.074
13674,4.047,0.000,0.411,0.335,1.725,1.252,0.000,9.067
13721,4.047,0.000,0.411,0.335,1.725,1.252,0.000,9.044
13768,4.047,0.000,0.411,0.335,1.725,1.252,0.000,9.081
13815,4.047,0.000,0.411,0.335,1.725,1.252,0.000,9.043
13862,4.047,0.000,0.411,0.335,1.725,1.252,0.000,9.044
13909,4.047,0.000,0.411,0.335,1.725,1.252,0.000,9.097
13956,4.047,0.000,0.411,0.335,1.725,1.252,0.000,9.045
14003,4.047,0.000,0.411,0.335,1.725,1.252,0.000,9.044
14050,4.047,0.000,0.411,0.335,1.725,1.252,0.000,9.057
14097,4.047,0.000,0.411,0.335,1.725,1.252,0.000,9.007
14144,4.047,0.000,0.411,0.335,1.725,1.252,0.000,9.058
14191,4.047,0.000,0.411,0.335,1.725,1.252,0.000,9.037
14238,4.047,0.000,0.411,0.335,1.725,1.252,0.000,8.993
14285,4.047,0.000,0.411,0.335,1.725,1.252,0.000,9.058
14332,4.047,0.000,0.411,0.335,1.725,1.252,0.000,9.082
14379,4.048,0.000,0.411,0.335,1.725,1.252,0.000,9.088
14426,4.048,0.000,0.411,0.335,1.725,1.252,0.000,9.053
14473,4.048,0.000,0.411,0.335,1.725,1.252,0.000,9.039
14520,4.048,0.000,0.411,0.335,1.725,1.252,0.000,9.088
14567,4.048,0.000,0.411,0.335,1.725,1.252,0.000,9.057
14614,4.048,0.000,0.411,0.335,1.725,1.252,0.000,9.079
14661,4.048,0.000,0.411,0.335,1.725,1.252,0.000,9.017
14706,4.031,0.000,0.411,0.343,1.725,1.284,0.000,9.157
14751,4.052,0.000,0.417,0.343,1.751,1.284,0.000,9.230
14797,3.725,-3.350,0.417,0.367,1.751,1.371,-0.001,9.405
14844,3.688,-3.350,0.417,0.410,1.751,1.533,-0.001,9.942
14891,3.665,-3.350,0.417,0.454,1.751,1.694,0.000,10.620
14938,3.650,-3.350,0.417,0.498,1.751,1.854,0.000,11.139
14985,3.637,-3.350,0.417,0.542,1.751,2.014,0.000,11.754
15032,3.626,-3.350,0.417,0.585,1.751,2.172,0.000,12.273
15079,3.615,-3.350,0.417,0.629,1.751,2.331,0.000,12.655
15126,3.604,-3.350,0.417,0.673,1.751,2.489,0.000,13.201
15172,3.861,0.000,0.417,0.679,1.751,2.509,0.001,13.208
15219,3.882,0.000,0.417,0.679,1.751,2.509,0.000,13.022
15266,3.892,0.000,0.417,0.679,1.751,2.509,0.000,12.741
15313,3.898,0.000,0.417,0.679,1.751,2.509,0.000,12.465
15360,3.901,0.000,0.417,0.679,1.751,2.509,0.000,12.163
15407,3.904,0.000,0.417,0.679,1.751,2.509,0.000,11.977
15454,3.905,0.000,0.417,0.679,1.751,2.509,0.000,11.785
15501,3.907,0.000,0.417,0.679,1.751,2.509,0.000,11.609
15548,3.908,0.000,0.417,0.679,1.751,2.509,0.000,11.360
15595,3.909,0.000,0.417,0.679,1.751,2.509,0.000,11.250
15642,3.910,0.000,0.417,0.679,1.751,2.509,0.000,11.102
15689,3.911,0.000,0.417,0.679,1.751,2.509,0.000,10.922
15736,3.912,0.000,0.417,0.679,1.751,2.509,0.000,10.839
15783,3.912,0.000,0.417,0.679,1.751,2.509,0.000,10.662
15830,3.913,0.000,0.417,0.679,1.751,2.509,0.000,10.640
15877,3.914,0.000,0.417,0.679,1.751,2.509,0.000,10.503
15924,3.915,0.000,0.417,0.679,1.751,2.509,0.000,10.425
15971,3.916,0.000,0.417,0.679,1.751,2.509,0.000,10.341
16018,3.916,0.000,0.417,0.679,1.751,2.509,0.000,10.288
16065,3.917,0.000,0.417,0.679,1.751,2.509,0.000,10.183
16112,3.918,0.000,0.417,0.679,1.751,2.509,0.000,10.135
16159,3.919,0.000,0.417,0.679,1.751,2.509,0.000,10.074
16206,3.920,0.000,0.417,0.679,1.751,2.509,0.000,10.075
16253,3.921,0.000,0.417,0.679,1.751,2.509,0.000,9.968
16300,3.922,0.000,0.417,0.679,1.751,2.509,0.000,9.919
16347,3.923,0.000,0.417,0.679,1.751,2.509,0.000,9.847
16394,3.923,0.000,0.417,0.679,1.751,2.509,0.000,9.813
16441,3.924,0.000,0.417,0.679,1.751,2.509,0.000,9.761
16488,3.925,0.000,0.417,0.679,1.751,2.509,0.000,9.697
16535,3.926,0.000,0.417,0.679,1.751,2.509,0.000,9.654
16582,3.927,0.000,0.417,0.679,1.751,2.509,0.000,9.692
16629,3.928,0.000,0.417,0.679,1.751,2.509,0.000,9.615
16676,3.928,0.000,0.417,0.679,1.751,2.509,0.000,9.599
16723,3.929,0.000,0.417,0.679,1.751,2.509,0.000,9.585
16770,3.929,0.000,0.417,0.679,1.751,2.509,0.000,9.557
16817,3.930,0.000,0.417,0.679,1.751,2.509,0.000,9.535
16864,3.930,0.000,0.417,0.679,1.751,2.509,0.000,9.523
16911,3.931,0.000,0.417,0.679,1.751,2.509,0.000,9.529
16958,3.931,0.000,0.417,0.679,1.751,2.509,0.000,9.443
17005,3.931,0.000,0.417,0.679,1.751,2.509,0.000,9.437
17052,3.931,0.000,0.417,0.679,1.751,2.509,0.000,9.454
17099,3.931,0.000,0.417,0.679,1.751,2.509,0.000,9.427
17146,3.932,0.000,0.417,0.679,1.751,2.509,0.000,9.414
17193,3.932,0.000,0.417,0.679,1.751,2.509,0.000,9.421
17240,3.932,0.000,0.417,0.679,1.751,2.509,0.000,9.451
17287,3.932,0.000,0.417,0.679,1.751,2.509,0.000,9.446
17334,3.932,0.000,0.417,0.679,1.751,2.509,0.000,9.414
17381,3.932,0.000,0.417,0.679,1.751,2.509,0.000,9.398
17428,3.932,0.000,0.417,0.679,1.751,2.509,0.000,9.410
17475,3.932,0.000,0.417,0.679,1.751,2.509,0.000,9.385
17522,3.933,0.000,0.417,0.679,1.751,2.509,0.000,9.403
17569,3.933,0.000,0.417,0.679,1.751,2.509,0.000,9.375
17616,3.933,0.000,0.417,0.679,1.751,2.509,0.000,9.328
17663,3.933,0.000,0.417,0.679,1.751,2.509,0.000,9.398
17710,3.933,0.000,0.417,0.679,1.751,2.509,0.000,9.399
17757,3.933,0.000,0.417,0.679,1.751,2.509,0.000,9.383
17804,3.933,0.000,0.417,0.679,1.751,2.509,0.000,9.371
17851,3.933,0.000,0.417,0.679,1.751,2.509,0.000,9.374
17898,3.933,0.000,0.417,0.679,1.751,2.509,0.000,9.381
17945,3.933,0.000,0.417,0.679,1.751,2.509,0.000,9.389
17992,3.933,0.000,0.417,0.679,1.751,2.509,0.000,9.413
18039,3.933,0.000,0.417,0.679,1.751,2.509,0.000,9.395
18086,3.933,0.000,0.417,0.679,1.751,2.509,0.000,9.427
18133,3.933,0.000,0.417,0.679,1.751,2.509,0.000,9.370
18180,3.933,0.000,0.417,0.679,1.751,2.509,0.000,9.415
18227,3.933,0.000,0.417,0.679,1.751,2.509,0.000,9.396
18274,3.933,0.000,0.417,0.679,1.751,2.509,0.000,9.399
18321,3.933,0.000,0.417,0.679,1.751,2.509,0.000,9.390
18368,3.933,0.000,0.417,0.679,1.751,2.509,0.000,9.393
18415,3.933,0.000,0.417,0.679,1.751,2.509,0.000,9.393
18462,3.934,0.000,0.417,0.679,1.751,2.509,0.000,9.394
18509,3.934,0.000,0.417,0.679,1.751,2.509,0.000,9.392
18556,3.934,0.000,0.417,0.679,1.751,2.509,0.000,9.402
18603,3.934,0.000,0.417,0.679,1.751,2.509,0.000,9.407
18650,3.934,0.000,0.417,0.679,1.751,2.509,0.000,9.422
18697,3.934,0.000,0.417,0.679,1.751,2.509,0.000,9.415
18742,3.685,-3.000,0.417,0.687,1.751,2.540,-0.002,9.420
18789,4.092,2.250,0.421,0.687,1.766,2.540,0.002,9.547
18834,3.699,-3.350,0.423,0.688,1.777,2.543,-0.004,9.581
18881,3.614,-3.350,0.423,0.732,1.777,2.703,-0.001,9.987
18928,3.590,-3.350,0.423,0.775,1.777,2.860,0.000,10.554
18975,3.574,-3.350,0.423,0.819,1.777,3.017,0.000,11.091
19022,3.559,-3.350,0.423,0.863,1.777,3.173,0.000,11.586
19069,3.545,-3.350,0.423,0.907,1.777,3.328,0.000,12.093
19116,3.531,-3.350,0.423,0.950,1.777,3.483,0.000,12.553
19163,3.518,-3.350,0.423,0.994,1.777,3.637,0.000,13.070
19209,3.744,0.000,0.423,1.022,1.777,3.735,0.001,13.396
19256,3.780,0.000,0.423,1.022,1.777,3.735,0.001,13.252
19303,3.795,0.000,0.423,1.022,1.777,3.735,0.000,13.024
19350,3.804,0.000,0.423,1.022,1.777,3.735,0.000,12.702
19397,3.810,0.000,0.423,1.022,1.777,3.735,0.000,12.500
19444,3.813,0.000,0.423,1.022,1.777,3.735,0.000,12.285
19491,3.815,0.000,0.423,1.022,1.777,3.735,0.000,12.134
19538,3.817,0.000,0.423,1.022,1.777,3.735,0.000,11.949
19585,3.818,0.000,0.423,1.022,1.777,3.735,0.000,11.852
19632,3.819,0.000,0.423,1.022,1.777,3.735,0.000,11.713
19679,3.820,0.000,0.423,1.022,1.777,3.735,0.000,11.574
19726,3.821,0.000,0.423,1.022,1.777,3.735,0.000,11.431
19773,3.821,0.000,0.423,1.022,1.777,3.735,0.000,11.409
19820,3.822,0.000,0.423,1.022,1.777,3.735,0.000,11.311
19867,3.822,0.000,0.423,1.022,1.777,3.735,0.000,11.273
19914,3.823,0.000,0.423,1.022,1.777,3.735,0.000,11.171
19961,3.823,0.000,0.423,1.022,1.777,3.735,0.000,11.183
20008,3.824,0.000,0.423,1.022,1.777,3.735,0.000,11.161
20055,3.824,0.000,0.423,1.022,1.777,3.735,0.000,11.079
20102,3.824,0.000,0.423,1.022,1.777,3.735,0.000,11.036
20149,3.825,0.000,0.423,1.022,1.777,3.735,0.000,11.013
20196,3.825,0.000,0.423,1.022,1.777,3.735,0.000,10.981
20243,3.825,0.000,0.423,1.022,1.777,3.735,0.000,10.930
20290,3.826,0.000,0.423,1.022,1.777,3.735,0.000,10.843
20337,3.826,0.000,0.423,1.022,1.777,3.735,0.000,10.865
20384,3.827,0.000,0.423,1.022,1.777,3.735,0.000,10.800
20431,3.827,0.000,0.423,1.022,1.777,3.735,0.000,10.789
20478,3.827,0.000,0.423,1.022,1.777,3.735,0.000,10.729
20525,3.827,0.000,0.423,1.022,1.777,3.735,0.000,10.720
20572,3.828,0.000,0.423,1.022,1.777,3.735,0.000,10.726
20619,3.828,0.000,0.423,1.022,1.777,3.735,0.000,10.661
20666,3.829,0.000,0.423,1.022,1.777,3.735,0.000,10.608
20713,3.829,0.000,0.423,1.022,1.777,3.735,0.000,10.582
20760,3.829,0.000,0.423,1.022,1.777,3.735,0.000,10.536
20807,3.830,0.000,0.423,1.022,1.777,3.735,0.000,10.537
20854,3.830,0.000,0.423,1.022,1.777,3.735,0.000,10.547
20901,3.830,0.000,0.423,1.022,1.777,3.735,0.000,10.494
20948,3.831,0.000,0.423,1.022,1.777,3.735,0.000,10.467
20995,3.831,0.000,0.423,1.022,1.777,3.735,0.000,10.419
21042,3.832,0.000,0.423,1.022,1.777,3.735,0.000,10.444
21089,3.832,0.000,0.423,1.022,1.777,3.735,0.000,10.394
21136,3.832,0.000,0.423,1.022,1.777,3.735,0.000,10.344
21183,3.833,0.000,0.423,1.022,1.777,3.735,0.000,10.380
21230,3.833,0.000,0.423,1.022,1.777,3.735,0.000,10.328
21277,3.834,0.000,0.423,1.022,1.777,3.735,0.000,10.347
21324,3.834,0.000,0.423,1.022,1.777,3.735,0.000,10.325
21371,3.835,0.000,0.423,1.022,1.777,3.735,0.000,10.293
21418,3.836,0.000,0.423,1.022,1.777,3.735,0.000,10.277
21465,3.836,0.000,0.423,1.022,1.777,3.735,0.000,10.248
21512,3.837,0.000,0.423,1.022,1.777,3.735,0.000,10.237
21559,3.837,0.000,0.423,1.022,1.777,3.735,0.000,10.215
21606,3.838,0.000,0.423,1.022,1.777,3.735,0.000,10.209
21653,3.839,0.000,0.423,1.022,1.777,3.735,0.000,10.192
21700,3.839,0.000,0.423,1.022,1.777,3.735,0.000,10.201
21747,3.840,0.000,0.423,1.022,1.777,3.735,0.000,10.132
21794,3.841,0.000,0.423,1.022,1.777,3.735,0.000,10.144
21841,3.841,0.000,0.423,1.022,1.777,3.735,0.000,10.108
21888,3.842,0.000,0.423,1.022,1.777,3.735,0.000,10.098
21935,3.843,0.000,0.423,1.022,1.777,3.735,0.000,10.096
21982,3.843,0.000,0.423,1.022,1.777,3.735,0.000,10.153
22029,3.844,0.000,0.423,1.022,1.777,3.735,0.000,10.074
22076,3.844,0.000,0.423,1.022,1.777,3.735,0.000,10.130
22123,3.845,0.000,0.423,1.022,1.777,3.735,0.000,10.094
22170,3.845,0.000,0.423,1.022,1.777,3.735,0.000,10.080
22217,3.846,0.000,0.423,1.022,1.777,3.735,0.000,10.054
22264,3.846,0.000,0.423,1.022,1.777,3.735,0.000,10.071
22311,3.846,0.000,0.423,1.022,1.777,3.735,0.000,10.068
22358,3.846,0.000,0.423,1.022,1.777,3.735,0.000,10.075
22405,3.847,0.000,0.423,1.022,1.777,3.735,0.000,10.048
22452,3.847,0.000,0.423,1.022,1.777,3.735,0.000,10.025
22499,3.847,0.000,0.423,1.022,1.777,3.735,0.000,10.014
22546,3.847,0.000,0.423,1.022,1.777,3.735,0.000,10.043
22593,3.847,0.000,0.423,1.022,1.777,3.735,0.000,10.052
22640,3.848,0.000,0.423,1.022,1.777,3.735,0.000,10.004
22687,3.848,0.000,0.423,1.022,1.777,3.735,0.000,10.010
22734,3.848,0.000,0.423,1.022,1.777,3.735,0.000,9.997
22781,3.848,0.000,0.423,1.022,1.777,3.735,0.000,10.005
22826,3.828,0.000,0.423,1.030,1.777,3.765,0.000,10.091
22871,3.852,0.000,0.430,1.030,1.802,3.765,0.000,10.165
22917,3.557,-3.350,0.430,1.053,1.802,3.845,-0.001,10.288
22964,3.520,-3.350,0.430,1.096,1.802,4.000,0.000,10.740
23011,3.499,-3.350,0.430,1.140,1.802,4.154,0.000,11.307
23058,3.482,-3.350,0.430,1.184,1.802,4.306,0.000,11.758
23105,3.466,-3.350,0.430,1.228,1.802,4.458,0.000,12.283
23152,3.450,-3.350,0.430,1.271,1.802,4.609,0.000,12.713
23199,3.434,-3.350,0.430,1.315,1.802,4.760,0.000,13.158
23246,3.418,-3.350,0.430,1.359,1.802,4.910,0.000,13.576
23292,3.673,0.000,0.430,1.365,1.802,4.932,0.001,13.698
23339,3.694,0.000,0.430,1.365,1.802,4.932,0.000,13.423
23386,3.704,0.000,0.430,1.365,1.802,4.932,0.000,13.275
23433,3.710,0.000,0.430,1.365,1.802,4.932,0.000,12.989
23480,3.715,0.000,0.430,1.365,1.802,4.932,0.000,12.745
23527,3.718,0.000,0.430,1.365,1.802,4.932,0.000,12.525
23574,3.720,0.000,0.430,1.365,1.802,4.932,0.000,12.329
23621,3.722,0.000,0.430,1.365,1.802,4.932,0.000,12.169
23668,3.723,0.000,0.430,1.365,1.802,4.932,0.000,12.010
23715,3.724,0.000,0.430,1.365,1.802,4.932,0.000,11.828
23762,3.725,0.000,0.430,1.365,1.802,4.932,0.000,11.705
23809,3.725,0.000,0.430,1.365,1.802,4.932,0.000,11.537
23856,3.726,0.000,0.430,1.365,1.802,4.932,0.000,11.456
23903,3.727,0.000,0.430,1.365,1.802,4.932,0.000,11.348
23950,3.727,0.000,0.430,1.365,1.802,4.932,0.000,11.236
23997,3.728,0.000,0.430,1.365,1.802,4.932,0.000,11.140
24044,3.728,0.000,0.430,1.365,1.802,4.932,0.000,11.074
24091,3.728,0.000,0.430,1.365,1.802,4.932,0.000,10.935
24138,3.729,0.000,0.430,1.365,1.802,4.932,0.000,10.977
24185,3.729,0.000,0.430,1.365,1.802,4.932,0.000,10.822
24232,3.729,0.000,0.430,1.365,1.802,4.932,0.000,10.779
24279,3.729,0.000,0.430,1.365,1.802,4.932,0.000,10.787
24326,3.730,0.000,0.430,1.365,1.802,4.932,0.000,10.617
24373,3.730,0.000,0.430,1.365,1.802,4.932,0.000,10.559
24420,3.730,0.000,0.430,1.365,1.802,4.932,0.000,10.544
24467,3.731,0.000,0.430,1.365,1.802,4.932,0.000,10.575
24514,3.731,0.000,0.430,1.365,1.802,4.932,0.000,10.457
24561,3.731,0.000,0.430,1.365,1.802,4.932,0.000,10.489
24608,3.731,0.000,0.430,1.365,1.802,4.932,0.000,10.384
24655,3.731,0.000,0.430,1.365,1.802,4.932,0.000,10.385
24702,3.731,0.000,0.430,1.365,1.802,4.932,0.000,10.362
24749,3.732,0.000,0.430,1.365,1.802,4.932,0.000,10.325
24796,3.732,0.000,0.430,1.365,1.802,4.932,0.000,10.291
24843,3.732,0.000,0.430,1.365,1.802,4.932,0.000,10.246
24890,3.732,0.000,0.430,1.365,1.802,4.932,0.000,10.253
24937,3.732,0.000,0.430,1.365,1.802,4.932,0.000,10.197
24984,3.732,0.000,0.430,1.365,1.802,4.932,0.000,10.148
25031,3.732,0.000,0.430,1.365,1.802,4.932,0.000,10.154
25078,3.733,0.000,0.430,1.365,1.802,4.932,0.000,10.141
25125,3.733,0.000,0.430,1.365,1.802,4.932,0.000,10.164
25172,3.733,0.000,0.430,1.365,1.802,4.932,0.000,10.148
25219,3.733,0.000,0.430,1.365,1.802,4.932,0.000,10.126
25266,3.733,0.000,0.430,1.365,1.802,4.932,0.000,10.094
25313,3.733,0.000,0.430,1.365,1.802,4.932,0.000,10.075
25360,3.733,0.000,0.430,1.365,1.802,4.932,0.000,10.115
25407,3.733,0.000,0.430,1.365,1.802,4.932,0.000,10.068
25454,3.734,0.000,0.430,1.365,1.802,4.932,0.000,10.082
25501,3.734,0.000,0.430,1.365,1.802,4.932,0.000,10.015
25548,3.734,0.000,0.430,1.365,1.802,4.932,0.000,10.003
25595,3.734,0.000,0.430,1.365,1.802,4.932,0.000,10.040
25642,3.734,0.000,0.430,1.365,1.802,4.932,0.000,10.013
25689,3.734,0.000,0.430,1.365,1.802,4.932,0.000,10.003
25736,3.734,0.000,0.430,1.365,1.802,4.932,0.000,9.992
25783,3.734,0.000,0.430,1.365,1.802,4.932,0.000,9.963
25830,3.734,0.000,0.430,1.365,1.802,4.932,0.000,9.962
25877,3.735,0.000,0.430,1.365,1.802,4.932,0.000,9.927
25924,3.735,0.000,0.430,1.365,1.802,4.932,0.000,9.949
25971,3.735,0.000,0.430,1.365,1.802,4.932,0.000,9.935
26018,3.735,0.000,0.430,1.365,1.802,4.932,0.000,9.920
26065,3.735,0.000,0.430,1.365,1.802,4.932,0.000,9.923
26112,3.735,0.000,0.430,1.365,1.802,4.932,0.000,9.898
26159,3.735,0.000,0.430,1.365,1.802,4.932,0.000,9.923
26206,3.735,0.000,0.430,1.365,1.802,4.932,0.000,9.909
26253,3.735,0.000,0.430,1.365,1.802,4.932,0.000,9.899
26300,3.735,0.000,0.430,1.365,1.802,4.932,0.000,9.892
26347,3.736,0.000,0.430,1.365,1.802,4.932,0.000,9.929
26394,3.736,0.000,0.430,1.365,1.802,4.932,0.000,9.890
26441,3.736,0.000,0.430,1.365,1.802,4.932,0.000,9.881
26488,3.736,0.000,0.430,1.365,1.802,4.932,0.000,9.889
26535,3.736,0.000,0.430,1.365,1.802,4.932,0.000,9.910
26582,3.736,0.000,0.430,1.365,1.802,4.932,0.000,9.878
26629,3.736,0.000,0.430,1.365,1.802,4.932,0.000,9.814
26676,3.736,0.000,0.430,1.365,1.802,4.932,0.000,9.846
26723,3.736,0.000,0.430,1.365,1.802,4.932,0.000,9.813
26770,3.737,0.000,0.430,1.365,1.802,4.932,0.000,9.807
26817,3.737,0.000,0.430,1.365,1.802,4.932,0.000,9.818
26863,3.504,-3.000,0.430,1.374,1.802,4.961,-0.002,9.879
26908,3.887,2.250,0.433,1.374,1.814,4.962,0.003,9.887
26953,3.736,0.000,0.436,1.374,1.826,4.962,0.000,9.938
27000,3.433,-3.350,0.436,1.417,1.826,5.113,-0.001,10.263
27047,3.405,-3.350,0.436,1.461,1.826,5.262,-0.001,10.857
27094,3.386,-3.350,0.436,1.505,1.826,5.411,0.000,11.395
27141,3.369,-3.350,0.436,1.549,1.826,5.559,0.000,11.798
27188,3.353,-3.350,0.436,1.592,1.826,5.706,0.000,12.307
27235,3.339,-3.350,0.436,1.636,1.826,5.852,0.000,12.737
27282,3.327,-3.350,0.436,1.680,1.826,5.998,0.000,13.322
27329,3.558,0.000,0.436,1.709,1.826,6.094,0.001,13.569
27376,3.594,0.000,0.436,1.709,1.826,6.094,0.000,13.448
27423,3.610,0.000,0.436,1.709,1.826,6.094,0.000,13.168
27470,3.619,0.000,0.436,1.709,1.826,6.094,0.000,12.864
27517,3.624,0.000,0.436,1.709,1.826,6.094,0.000,12.558
27564,3.627,0.000,0.436,1.709,1.826,6.094,0.000,12.410
27611,3.630,0.000,0.436,1.709,1.826,6.094,0.000,12.160
27658,3.632,0.000,0.436,1.709,1.826,6.094,0.000,11.977
27705,3.633,0.000,0.436,1.709,1.826,6.094,0.000,11.803
27752,3.635,0.000,0.436,1.709,1.826,6.094,0.000,11.607
27799,3.636,0.000,0.436,1.709,1.826,6.094,0.000,11.434
27846,3.637,0.000,0.436,1.709,1.826,6.094,0.000,11.289
27893,3.637,0.000,0.436,1.709,1.826,6.094,0.000,11.147
27940,3.638,0.000,0.436,1.709,1.826,6.094,0.000,11.004
27987,3.638,0.000,0.436,1.709,1.826,6.094,0.000,10.871
28034,3.639,0.000,0.436,1.709,1.826,6.094,0.000,10.811
28081,3.639,0.000,0.436,1.709,1.826,6.094,0.000,10.716
28128,3.639,0.000,0.436,1.709,1.826,6.094,0.000,10.623
28175,3.640,0.000,0.436,1.709,1.826,6.094,0.000,10.510
28222,3.640,0.000,0.436,1.709,1.826,6.094,0.000,10.469
28269,3.640,0.000,0.436,1.709,1.826,6.094,0.000,10.356
28316,3.640,0.000,0.436,1.709,1.826,6.094,0.000,10.271
28363,3.641,0.000,0.436,1.709,1.826,6.094,0.000,10.243
28410,3.641,0.000,0.436,1.709,1.826,6.094,0.000,10.158
28457,3.641,0.000,0.436,1.709,1.826,6.094,0.000,10.127
28504,3.641,0.000,0.436,1.709,1.826,6.094,0.000,10.087
28551,3.641,0.000,0.436,1.709,1.826,6.094,0.000,10.048
28598,3.641,0.000,0.436,1.709,1.826,6.094,0.000,9.996
28645,3.642,0.000,0.436,1.709,1.826,6.094,0.000,9.984
28692,3.642,0.000,0.436,1.709,1.826,6.094,0.000,9.918
28739,3.642,0.000,0.436,1.709,1.826,6.094,0.000,9.905
28786,3.642,0.000,0.436,1.709,1.826,6.094,0.000,9.836
28833,3.642,0.000,0.436,1.709,1.826,6.094,0.000,9.832
28880,3.642,0.000,0.436,1.709,1.826,6.094,0.000,9.842
28927,3.642,0.000,0.436,1.709,1.826,6.094,0.000,9.802
28974,3.642,0.000,0.436,1.709,1.826,6.094,0.000,9.789
29021,3.642,0.000,0.436,1.709,1.826,6.094,0.000,9.713
29068,3.642,0.000,0.436,1.709,1.826,6.094,0.000,9.748
29115,3.643,0.000,0.436,1.709,1.826,6.094,0.000,9.691
29162,3.643,0.000,0.436,1.709,1.826,6.094,0.000,9.681
29209,3.643,0.000,0.436,1.709,1.826,6.094,0.000,9.676
29256,3.643,0.000,0.436,1.709,1.826,6.094,0.000,9.684
29303,3.643,0.000,0.436,1.709,1.826,6.094,0.000,9.632
29350,3.643,0.000,0.436,1.709,1.826,6.094,0.000,9.595
29397,3.643,0.000,0.436,1.709,1.826,6.094,0.000,9.611
29444,3.643,0.000,0.436,1.709,1.826,6.094,0.000,9.563
29491,3.643,0.000,0.436,1.709,1.826,6.094,0.000,9.573
29538,3.643,0.000,0.436,1.709,1.826,6.094,0.000,9.556
29585,3.643,0.000,0.436,1.709,1.826,6.094,0.000,9.531
29632,3.643,0.000,0.436,1.709,1.826,6.094,0.000,9.502
29679,3.643,0.000,0.436,1.709,1.826,6.094,0.000,9.512
29726,3.643,0.000,0.436,1.709,1.826,6.094,0.000,9.503
29773,3.643,0.000,0.436,1.709,1.826,6.094,0.000,9.453
29820,3.643,0.000,0.436,1.709,1.826,6.094,0.000,9.477
29867,3.644,0.000,0.436,1.709,1.826,6.094,0.000,9.451
29914,3.644,0.000,0.436,1.709,1.826,6.094,0.000,9.437
29961,3.644,0.000,0.436,1.709,1.826,6.094,0.000,9.426
30008,3.644,0.000,0.436,1.709,1.826,6.094,0.000,9.400
30055,3.644,0.000,0.436,1.709,1.826,6.094,0.000,9.394
30102,3.644,0.000,0.436,1.709,1.826,6.094,0.000,9.416
30149,3.644,0.000,0.436,1.709,1.826,6.094,0.000,9.409
30196,3.644,0.000,0.436,1.709,1.826,6.094,0.000,9.440
30243,3.644,0.000,0.436,1.709,1.826,6.094,0.000,9.374
30290,3.644,0.000,0.436,1.709,1.826,6.094,0.000,9.366
30337,3.644,0.000,0.436,1.709,1.826,6.094,0.000,9.351
30384,3.644,0.000,0.436,1.709,1.826,6.094,0.000,9.384
30431,3.644,0.000,0.436,1.709,1.826,6.094,0.000,9.417
30478,3.644,0.000,0.436,1.709,1.826,6.094,0.000,9.491
30525,3.644,0.000,0.436,1.709,1.826,6.094,0.000,9.510
30572,3.644,0.000,0.436,1.709,1.826,6.094,0.000,9.512
30619,3.644,0.000,0.436,1.709,1.826,6.094,0.000,9.543
30666,3.644,0.000,0.436,1.709,1.826,6.094,0.000,9.552
30713,3.644,0.000,0.436,1.709,1.826,6.094,0.000,9.557
30760,3.644,0.000,0.436,1.709,1.826,6.094,0.000,9.611
30807,3.644,0.000,0.436,1.709,1.826,6.094,0.000,9.676
30854,3.644,0.000,0.436,1.709,1.826,6.094,0.000,9.640
30901,3.644,0.000,0.436,1.709,1.826,6.094,0.000,9.691
30947,3.630,0.000,0.436,1.717,1.826,6.122,0.000,9.825
30992,3.647,0.000,0.442,1.717,1.850,6.122,0.000,9.863
31038,3.363,-3.350,0.442,1.739,1.850,6.198,-0.002,10.041
31085,3.314,-3.350,0.442,1.783,1.850,6.344,-0.001,10.645
31132,3.285,-3.350,0.442,1.827,1.850,6.488,0.000,11.270
31179,3.268,-3.350,0.442,1.871,1.850,6.632,0.000,11.954
31226,3.255,-3.350,0.442,1.914,1.850,6.774,0.000,12.477
31273,3.243,-3.350,0.442,1.958,1.850,6.916,0.000,13.027
31320,3.231,-3.350,0.442,2.002,1.850,7.058,0.000,13.553
31367,3.220,-3.350,0.442,2.046,1.850,7.199,0.000,14.046
31413,3.498,0.000,0.442,2.052,1.850,7.220,0.001,14.151
31460,3.516,0.000,0.442,2.052,1.850,7.220,0.000,13.894
31507,3.527,0.000,0.442,2.052,1.850,7.220,0.000,13.591
31554,3.538,0.000,0.442,2.052,1.850,7.220,0.000,13.265
31601,3.547,0.000,0.442,2.052,1.850,7.220,0.000,12.949
31648,3.553,0.000,0.442,2.052,1.850,7.220,0.000,12.689
31695,3.558,0.000,0.442,2.052,1.850,7.220,0.000,12.452
31742,3.561,0.000,0.442,2.052,1.850,7.220,0.000,12.241
31789,3.564,0.000,0.442,2.052,1.850,7.220,0.000,12.021
31836,3.566,0.000,0.442,2.052,1.850,7.220,0.000,11.786
31883,3.567,0.000,0.442,2.052,1.850,7.220,0.000,11.596
31930,3.569,0.000,0.442,2.052,1.850,7.220,0.000,11.442
31977,3.570,0.000,0.442,2.052,1.850,7.220,0.000,11.302
32024,3.571,0.000,0.442,2.052,1.850,7.220,0.000,11.154
32071,3.572,0.000,0.442,2.052,1.850,7.220,0.000,10.985
32118,3.573,0.000,0.442,2.052,1.850,7.220,0.000,10.908
32165,3.573,0.000,0.442,2.052,1.850,7.220,0.000,10.783
32212,3.574,0.000,0.442,2.052,1.850,7.220,0.000,10.685
32259,3.574,0.000,0.442,2.052,1.850,7.220,0.000,10.544
32306,3.575,0.000,0.442,2.052,1.850,7.220,0.000,10.465
32353,3.576,0.000,0.442,2.052,1.850,7.220,0.000,10.367
32400,3.576,0.000,0.442,2.052,1.850,7.220,0.000,10.284
32447,3.576,0.000,0.442,2.052,1.850,7.220,0.000,10.225
32494,3.577,0.000,0.442,2.052,1.850,7.220,0.000,10.143
32541,3.577,0.000,0.442,2.052,1.850,7.220,0.000,10.029
32588,3.577,0.000,0.442,2.052,1.850,7.220,0.000,9.970
32635,3.578,0.000,0.442,2.052,1.850,7.220,0.000,9.942
32682,3.578,0.000,0.442,2.052,1.850,7.220,0.000,9.896
32729,3.578,0.000,0.442,2.052,1.850,7.220,0.000,9.800
32776,3.579,0.000,0.442,2.052,1.850,7.220,0.000,9.787
32823,3.579,0.000,0.442,2.052,1.850,7.220,0.000,9.679
32870,3.579,0.000,0.442,2.052,1.850,7.220,0.000,9.672
32917,3.579,0.000,0.442,2.052,1.850,7.220,0.000,9.626
32964,3.579,0.000,0.442,2.052,1.850,7.220,0.000,9.564
33011,3.579,0.000,0.442,2.052,1.850,7.220,0.000,9.600
33058,3.580,0.000,0.442,2.052,1.850,7.220,0.000,9.536
33105,3.580,0.000,0.442,2.052,1.850,7.220,0.000,9.460
33152,3.580,0.000,0.442,2.052,1.850,7.220,0.000,9.475
33199,3.580,0.000,0.442,2.052,1.850,7.220,0.000,9.445
33246,3.580,0.000,0.442,2.052,1.850,7.220,0.000,9.392
33293,3.580,0.000,0.442,2.052,1.850,7.220,0.000,9.407
33340,3.581,0.000,0.442,2.052,1.850,7.220,0.000,9.368
33387,3.581,0.000,0.442,2.052,1.850,7.220,0.000,9.410
33434,3.581,0.000,0.442,2.052,1.850,7.220,0.000,9.314
33481,3.581,0.000,0.442,2.052,1.850,7.220,0.000,9.305
33528,3.581,0.000,0.442,2.052,1.850,7.220,0.000,9.343
33575,3.581,0.000,0.442,2.052,1.850,7.220,0.000,9.263
33622,3.581,0.000,0.442,2.052,1.850,7.220,0.000,9.268
33669,3.581,0.000,0.442,2.052,1.850,7.220,0.000,9.282
33716,3.581,0.000,0.442,2.052,1.850,7.220,0.000,9.247
33763,3.581,0.000,0.442,2.052,1.850,7.220,0.000,9.218
33810,3.581,0.000,0.442,2.052,1.850,7.220,0.000,9.214
33857,3.581,0.000,0.442,2.052,1.850,7.220,0.000,9.210
33904,3.581,0.000,0.442,2.052,1.850,7.220,0.000,9.207
33951,3.582,0.000,0.442,2.052,1.850,7.220,0.000,9.162
33998,3.582,0.000,0.442,2.052,1.850,7.220,0.000,9.151
34045,3.582,0.000,0.442,2.052,1.850,7.220,0.000,9.127
34092,3.582,0.000,0.442,2.052,1.850,7.220,0.000,9.109
34139,3.582,0.000,0.442,2.052,1.850,7.220,0.000,9.134
34186,3.582,0.000,0.442,2.052,1.850,7.220,0.000,9.121
34233,3.582,0.000,0.442,2.052,1.850,7.220,0.000,9.071
34280,3.582,0.000,0.442,2.052,1.850,7.220,0.000,9.068
34327,3.582,0.000,0.442,2.052,1.850,7.220,0.000,9.047
34374,3.582,0.000,0.442,2.052,1.850,7.220,0.000,9.040
34421,3.582,0.000,0.442,2.052,1.850,7.220,0.000,9.015
34468,3.582,0.000,0.442,2.052,1.850,7.220,0.000,8.985
34515,3.582,0.000,0.442,2.052,1.850,7.220,0.000,8.936
34562,3.582,0.000,0.442,2.052,1.850,7.220,0.000,8.947
34609,3.582,0.000,0.442,2.052,1.850,7.220,0.000,8.967
34656,3.582,0.000,0.442,2.052,1.850,7.220,0.000,8.974
34703,3.582,0.000,0.442,2.052,1.850,7.220,0.000,8.968
34750,3.582,0.000,0.442,2.052,1.850,7.220,0.000,8.913
34797,3.582,0.000,0.442,2.052,1.850,7.220,0.000,8.924
34844,3.582,0.000,0.442,2.052,1.850,7.220,0.000,8.948
34891,3.582,0.000,0.442,2.052,1.850,7.220,0.000,8.909
34938,3.582,0.000,0.442,2.052,1.850,7.220,0.000,8.906
34984,3.338,-3.000,0.442,2.061,1.850,7.248,-0.002,8.930
35029,3.742,2.250,0.445,2.061,1.861,7.248,0.002,8.991
35074,3.583,0.000,0.448,2.061,1.873,7.248,0.000,9.050
35121,3.253,-3.350,0.448,2.104,1.873,7.392,-0.001,9.434
35168,3.210,-3.350,0.448,2.148,1.873,7.533,-0.001,10.161
35215,3.183,-3.350,0.448,2.192,1.873,7.673,-0.001,10.885
35262,3.162,-3.350,0.448,2.236,1.873,7.812,-0.001,11.534
35309,3.140,-3.350,0.448,2.279,1.873,7.950,-0.001,12.214
35356,3.119,-3.350,0.448,2.323,1.873,8.087,0.000,12.849
35403,3.097,-3.350,0.448,2.367,1.873,8.222,0.000,13.472
35449,3.384,0.000,0.448,2.396,1.873,8.312,0.002,14.037
35496,3.431,0.000,0.448,2.396,1.873,8.312,0.000,13.781
35543,3.445,0.000,0.448,2.396,1.873,8.312,0.000,13.463
35590,3.452,0.000,0.448,2.396,1.873,8.312,0.000,13.085
35637,3.456,0.000,0.448,2.396,1.873,8.312,0.000,12.660
35684,3.460,0.000,0.448,2.396,1.873,8.312,0.000,12.429
35731,3.465,0.000,0.448,2.396,1.873,8.312,0.000,12.133
35778,3.470,0.000,0.448,2.396,1.873,8.312,0.000,11.890
35825,3.475,0.000,0.448,2.396,1.873,8.312,0.000,11.596
35872,3.480,0.000,0.448,2.396,1.873,8.312,0.000,11.408
35919,3.484,0.000,0.448,2.396,1.873,8.312,0.000,11.142
35966,3.487,0.000,0.448,2.396,1.873,8.312,0.000,10.967
36013,3.490,0.000,0.448,2.396,1.873,8.312,0.000,10.796
36060,3.493,0.000,0.448,2.396,1.873,8.312,0.000,10.593
36107,3.495,0.000,0.448,2.396,1.873,8.312,0.000,10.438
36154,3.497,0.000,0.448,2.396,1.873,8.312,0.000,10.282
36201,3.499,0.000,0.448,2.396,1.873,8.312,0.000,10.129
36248,3.500,0.000,0.448,2.396,1.873,8.312,0.000,10.030
36295,3.502,0.000,0.448,2.396,1.873,8.312,0.000,9.906
36342,3.503,0.000,0.448,2.396,1.873,8.312,0.000,9.792
36389,3.504,0.000,0.448,2.396,1.873,8.312,0.000,9.647
36436,3.505,0.000,0.448,2.396,1.873,8.312,0.000,9.540
36483,3.506,0.000,0.448,2.396,1.873,8.312,0.000,9.443
36530,3.507,0.000,0.448,2.396,1.873,8.312,0.000,9.338
36577,3.508,0.000,0.448,2.396,1.873,8.312,0.000,9.266
36624,3.509,0.000,0.448,2.396,1.873,8.312,0.000,9.236
36671,3.509,0.000,0.448,2.396,1.873,8.312,0.000,9.125
36718,3.510,0.000,0.448,2.396,1.873,8.312,0.000,9.089
36765,3.510,0.000,0.448,2.396,1.873,8.312,0.000,9.027
36812,3.511,0.000,0.448,2.396,1.873,8.312,0.000,8.999
36859,3.511,0.000,0.448,2.396,1.873,8.312,0.000,8.987
36906,3.512,0.000,0.448,2.396,1.873,8.312,0.000,8.957
36953,3.512,0.000,0.448,2.396,1.873,8.312,0.000,8.884
37000,3.513,0.000,0.448,2.396,1.873,8.312,0.000,8.808
37047,3.513,0.000,0.448,2.396,1.873,8.312,0.000,8.827
37094,3.513,0.000,0.448,2.396,1.873,8.312,0.000,8.799
37141,3.514,0.000,0.448,2.396,1.873,8.312,0.000,8.759
37188,3.514,0.000,0.448,2.396,1.873,8.312,0.000,8.749
37235,3.514,0.000,0.448,2.396,1.873,8.312,0.000,8.659
37282,3.515,0.000,0.448,2.396,1.873,8.312,0.000,8.721
37329,3.515,0.000,0.448,2.396,1.873,8.312,0.000,8.649
37376,3.515,0.000,0.448,2.396,1.873,8.312,0.000,8.654
37423,3.515,0.000,0.448,2.396,1.873,8.312,0.000,8.628
37470,3.516,0.000,0.448,2.396,1.873,8.312,0.000,8.602
37517,3.516,0.000,0.448,2.396,1.873,8.312,0.000,8.575
37564,3.516,0.000,0.448,2.396,1.873,8.312,0.000,8.614
37611,3.516,0.000,0.448,2.396,1.873,8.312,0.000,8.538
37658,3.517,0.000,0.448,2.396,1.873,8.312,0.000,8.507
37705,3.517,0.000,0.448,2.396,1.873,8.312,0.000,8.548
37752,3.517,0.000,0.448,2.396,1.873,8.312,0.000,8.497
37799,3.517,0.000,0.448,2.396,1.873,8.312,0.000,8.474
37846,3.517,0.000,0.448,2.396,1.873,8.312,0.000,8.477
37893,3.518,0.000,0.448,2.396,1.873,8.312,0.000,8.476
37940,3.518,0.000,0.448,2.396,1.873,8.312,0.000,8.454
37987,3.518,0.000,0.448,2.396,1.873,8.312,0.000,8.420
38034,3.518,0.000,0.448,2.396,1.873,8.312,0.000,8.392
38081,3.518,0.000,0.448,2.396,1.873,8.312,0.000,8.379
38128,3.519,0.000,0.448,2.396,1.873,8.312,0.000,8.385
38175,3.519,0.000,0.448,2.396,1.873,8.312,0.000,8.381
38222,3.519,0.000,0.448,2.396,1.873,8.312,0.000,8.388
38269,3.519,0.000,0.448,2.396,1.873,8.312,0.000,8.369
38316,3.519,0.000,0.448,2.396,1.873,8.312,0.000,8.371
38363,3.519,0.000,0.448,2.396,1.873,8.312,0.000,8.361
38410,3.520,0.000,0.448,2.396,1.873,8.312,0.000,8.395
38457,3.520,0.000,0.448,2.396,1.873,8.312,0.000,8.315
38504,3.520,0.000,0.448,2.396,1.873,8.312,0.000,8.283
38551,3.520,0.000,0.448,2.396,1.873,8.312,0.000,8.303
38598,3.520,0.000,0.448,2.396,1.873,8.312,0.000,8.283
38645,3.520,0.000,0.448,2.396,1.873,8.312,0.000,8.294
38692,3.520,0.000,0.448,2.396,1.873,8.312,0.000,8.303
38739,3.521,0.000,0.448,2.396,1.873,8.312,0.000,8.267
38786,3.521,0.000,0.448,2.396,1.873,8.312,0.000,8.255
38833,3.521,0.000,0.448,2.396,1.873,8.312,0.000,8.270
38880,3.521,0.000,0.448,2.396,1.873,8.312,0.000,8.245
38927,3.521,0.000,0.448,2.396,1.873,8.312,0.000,8.252
38974,3.521,0.000,0.448,2.396,1.873,8.312,0.000,8.265
39021,3.521,0.000,0.448,2.396,1.873,8.312,0.000,8.248
39066,3.505,0.000,0.448,2.404,1.873,8.339,0.000,8.309
39112,3.524,0.000,0.455,2.404,1.896,8.339,0.000,8.412
39158,3.172,-3.350,0.455,2.425,1.896,8.407,-0.002,8.539
39205,3.098,-3.350,0.455,2.469,1.896,8.544,-0.001,9.343
39252,3.050,-3.350,0.455,2.513,1.896,8.679,-0.001,10.238
39299,3.009,-3.350,0.455,2.557,1.896,8.811,-0.001,11.174
39346,2.964,-3.350,0.455,2.600,1.896,8.942,-0.001,12.109
39393,2.912,-3.350,0.455,2.644,1.896,9.070,-0.001,13.024
39440,2.854,-3.350,0.455,2.688,1.896,9.197,-0.001,13.944
39487,2.788,-3.350,0.455,2.732,1.896,9.320,-0.002,14.970
39533,3.321,0.000,0.455,2.739,1.896,9.341,0.001,15.229
39580,3.354,0.000,0.455,2.739,1.896,9.341,0.000,14.753
39627,3.367,0.000,0.455,2.739,1.896,9.341,0.000,14.219
39674,3.373,0.000,0.455,2.739,1.896,9.341,0.000,13.805
39721,3.376,0.000,0.455,2.739,1.896,9.341,0.000,13.363
39768,3.377,0.000,0.455,2.739,1.896,9.341,0.000,12.935
39815,3.379,0.000,0.455,2.739,1.896,9.341,0.000,12.583
39862,3.380,0.000,0.455,2.739,1.896,9.341,0.000,12.266
39909,3.382,0.000,0.455,2.739,1.896,9.341,0.000,11.919
39956,3.383,0.000,0.455,2.739,1.896,9.341,0.000,11.578
40003,3.384,0.000,0.455,2.739,1.896,9.341,0.000,11.380
40050,3.386,0.000,0.455,2.739,1.896,9.341,0.000,11.107
40097,3.387,0.000,0.455,2.739,1.896,9.341,0.000,10.862
40144,3.389,0.000,0.455,2.739,1.896,9.341,0.000,10.621
40191,3.390,0.000,0.455,2.739,1.896,9.341,0.000,10.486
40238,3.392,0.000,0.455,2.739,1.896,9.341,0.000,10.301
40285,3.394,0.000,0.455,2.739,1.896,9.341,0.000,10.112
40332,3.395,0.000,0.455,2.739,1.896,9.341,0.000,9.969
40379,3.397,0.000,0.455,2.739,1.896,9.341,0.000,9.803
40426,3.398,0.000,0.455,2.739,1.896,9.341,0.000,9.665
40473,3.399,0.000,0.455,2.739,1.896,9.341,0.000,9.526
40520,3.400,0.000,0.455,2.739,1.896,9.341,0.000,9.398
40567,3.401,0.000,0.455,2.739,1.896,9.341,0.000,9.294
40614,3.402,0.000,0.455,2.739,1.896,9.341,0.000,9.185
40661,3.403,0.000,0.455,2.739,1.896,9.341,0.000,9.046
40708,3.404,0.000,0.455,2.739,1.896,9.341,0.000,9.002
40755,3.405,0.000,0.455,2.739,1.896,9.341,0.000,8.922
40802,3.405,0.000,0.455,2.739,1.896,9.341,0.000,8.876
40849,3.406,0.000,0.455,2.739,1.896,9.341,0.000,8.726
40896,3.407,0.000,0.455,2.739,1.896,9.341,0.000,8.715
40943,3.407,0.000,0.455,2.739,1.896,9.341,0.000,8.662
40990,3.408,0.000,0.455,2.739,1.896,9.341,0.000,8.603
41037,3.408,0.000,0.455,2.739,1.896,9.341,0.000,8.520
41084,3.409,0.000,0.455,2.739,1.896,9.341,0.000,8.480
41131,3.409,0.000,0.455,2.739,1.896,9.341,0.000,8.419
41178,3.410,0.000,0.455,2.739,1.896,9.341,0.000,8.377
41225,3.410,0.000,0.455,2.739,1.896,9.341,0.000,8.368
41272,3.410,0.000,0.455,2.739,1.896,9.341,0.000,8.286
41319,3.411,0.000,0.455,2.739,1.896,9.341,0.000,8.384
41366,3.411,0.000,0.455,2.739,1.896,9.341,0.000,8.307
41413,3.411,0.000,0.455,2.739,1.896,9.341,0.000,8.313
41460,3.412,0.000,0.455,2.739,1.896,9.341,0.000,8.310
41507,3.412,0.000,0.455,2.739,1.896,9.341,0.000,8.329
41554,3.412,0.000,0.455,2.739,1.896,9.341,0.000,8.337
41601,3.412,0.000,0.455,2.739,1.896,9.341,0.000,8.340
41648,3.413,0.000,0.455,2.739,1.896,9.341,0.000,8.353
41695,3.413,0.000,0.455,2.739,1.896,9.341,0.000,8.374
41742,3.413,0.000,0.455,2.739,1.896,9.341,0.000,8.345
41789,3.413,0.000,0.455,2.739,1.896,9.341,0.000,8.385
41836,3.414,0.000,0.455,2.739,1.896,9.341,0.000,8.405
41883,3.414,0.000,0.455,2.739,1.896,9.341,0.000,8.415
41930,3.414,0.000,0.455,2.739,1.896,9.341,0.000,8.426
41977,3.414,0.000,0.455,2.739,1.896,9.341,0.000,8.432
42024,3.414,0.000,0.455,2.739,1.896,9.341,0.000,8.501
42071,3.415,0.000,0.455,2.739,1.896,9.341,0.000,8.477
42118,3.415,0.000,0.455,2.739,1.896,9.341,0.000,8.467
42165,3.415,0.000,0.455,2.739,1.896,9.341,0.000,8.486
42212,3.415,0.000,0.455,2.739,1.896,9.341,0.000,8.530
42259,3.415,0.000,0.455,2.739,1.896,9.341,0.000,8.474
42306,3.415,0.000,0.455,2.739,1.896,9.341,0.000,8.470
42353,3.416,0.000,0.455,2.739,1.896,9.341,0.000,8.448
42400,3.416,0.000,0.455,2.739,1.896,9.341,0.000,8.450
42447,3.416,0.000,0.455,2.739,1.896,9.341,0.000,8.418
42494,3.416,0.000,0.455,2.739,1.896,9.341,0.000,8.462
42541,3.416,0.000,0.455,2.739,1.896,9.341,0.000,8.463
42588,3.416,0.000,0.455,2.739,1.896,9.341,0.000,8.417
42635,3.416,0.000,0.455,2.739,1.896,9.341,0.000,8.395
42682,3.416,0.000,0.455,2.739,1.896,9.341,0.000,8.412
42729,3.417,0.000,0.455,2.739,1.896,9.341,0.000,8.466
42776,3.417,0.000,0.455,2.739,1.896,9.341,0.000,8.431
42823,3.417,0.000,0.455,2.739,1.896,9.341,0.000,8.435
42870,3.417,0.000,0.455,2.739,1.896,9.341,0.000,8.412
42917,3.417,0.000,0.455,2.739,1.896,9.341,0.000,8.410
42964,3.417,0.000,0.455,2.739,1.896,9.341,0.000,8.397
43011,3.417,0.000,0.455,2.739,1.896,9.341,0.000,8.371
43058,3.417,0.000,0.455,2.739,1.896,9.341,0.000,8.323
43104,2.859,-3.000,0.455,2.747,1.896,9.363,-0.012,8.383
43149,3.645,2.250,0.457,2.747,1.905,9.365,0.003,8.546
43195,3.419,0.000,0.461,2.747,1.919,9.365,0.000,8.629
43241,2.511,-3.350,0.461,2.790,1.919,9.481,-0.006,9.663
43244,2.492,-3.350,0.461,2.793,1.919,9.488,-0.006,9.771