File: data/T25/5C/1.csv
time_s,voltage_v,current_a,chargecapacity_ah,dischargecapacity_ah,charge_energy_wh,discharge_energy_wh,voltagedot_v_per_s,temp_degc
1,3.556,0.000,0.000,0.000,0.000,0.000,0.000,24.490
18,3.556,0.000,0.000,0.000,0.000,0.000,0.000,24.487
35,3.556,0.000,0.000,0.000,0.000,0.000,0.000,24.455
52,3.556,0.000,0.000,0.000,0.000,0.000,0.000,24.451
68,3.653,1.625,0.004,0.000,0.013,0.000,0.001,24.492
85,3.664,1.625,0.011,0.000,0.041,0.000,0.000,24.495
102,3.670,1.625,0.019,0.000,0.069,0.000,0.000,24.494
119,3.675,1.625,0.027,0.000,0.098,0.000,0.000,24.550
136,3.678,1.625,0.034,0.000,0.126,0.000,0.000,24.562
153,3.681,1.625,0.042,0.000,0.154,0.000,0.000,24.635
170,3.683,1.625,0.050,0.000,0.182,0.000,0.000,24.641
187,3.685,1.625,0.057,0.000,0.211,0.000,0.000,24.694
204,3.687,1.625,0.065,0.000,0.239,0.000,0.000,24.712
221,3.688,1.625,0.073,0.000,0.267,0.000,0.000,24.747
238,3.690,1.625,0.080,0.000,0.296,0.000,0.000,24.753
255,3.692,1.625,0.088,0.000,0.324,0.000,0.000,24.782
272,3.693,1.625,0.096,0.000,0.352,0.000,0.000,24.849
289,3.694,1.625,0.103,0.000,0.381,0.000,0.000,24.890
306,3.696,1.625,0.111,0.000,0.409,0.000,0.000,24.875
323,3.698,1.625,0.119,0.000,0.437,0.000,0.000,24.950
340,3.699,1.625,0.126,0.000,0.466,0.000,0.000,24.979
357,3.701,1.625,0.134,0.000,0.494,0.000,0.000,24.994
374,3.702,1.625,0.142,0.000,0.522,0.000,0.000,25.019
391,3.704,1.625,0.149,0.000,0.551,0.000,0.000,25.096
408,3.705,1.625,0.157,0.000,0.579,0.000,0.000,25.095
425,3.707,1.625,0.165,0.000,0.608,0.000,0.000,25.057
442,3.708,1.625,0.172,0.000,0.636,0.000,0.000,25.117
459,3.710,1.625,0.180,0.000,0.665,0.000,0.000,25.181
476,3.712,1.625,0.188,0.000,0.693,0.000,0.000,25.140
493,3.713,1.625,0.196,0.000,0.722,0.000,0.000,25.211
510,3.715,1.625,0.203,0.000,0.750,0.000,0.000,25.227
527,3.716,1.625,0.211,0.000,0.779,0.000,0.000,25.241
544,3.718,1.625,0.219,0.000,0.807,0.000,0.000,25.232
561,3.719,1.625,0.226,0.000,0.836,0.000,0.000,25.293
578,3.721,1.625,0.234,0.000,0.864,0.000,0.000,25.305
595,3.723,1.625,0.242,0.000,0.893,0.000,0.000,25.336
612,3.724,1.625,0.249,0.000,0.921,0.000,0.000,25.369
629,3.726,1.625,0.257,0.000,0.950,0.000,0.000,25.366
646,3.728,1.625,0.265,0.000,0.979,0.000,0.000,25.423
663,3.729,1.625,0.272,0.000,1.007,0.000,0.000,25.413
680,3.731,1.625,0.280,0.000,1.036,0.000,0.000,25.409
697,3.733,1.625,0.288,0.000,1.065,0.000,0.000,25.410
714,3.734,1.625,0.295,0.000,1.093,0.000,0.000,25.417
731,3.736,1.625,0.303,0.000,1.122,0.000,0.000,25.460
748,3.738,1.625,0.311,0.000,1.151,0.000,0.000,25.468
765,3.740,1.625,0.318,0.000,1.179,0.000,0.000,25.487
782,3.741,1.625,0.326,0.000,1.208,0.000,0.000,25.526
799,3.743,1.625,0.334,0.000,1.237,0.000,0.000,25.547
816,3.745,1.625,0.341,0.000,1.265,0.000,0.000,25.537
833,3.747,1.625,0.349,0.000,1.294,0.000,0.000,25.503
850,3.748,1.625,0.357,0.000,1.323,0.000,0.000,25.556
867,3.750,1.625,0.364,0.000,1.352,0.000,0.000,25.560
884,3.752,1.625,0.372,0.000,1.381,0.000,0.000,25.575
901,3.754,1.625,0.380,0.000,1.409,0.000,0.000,25.591
918,3.755,1.625,0.387,0.000,1.438,0.000,0.000,25.621
935,3.757,1.625,0.395,0.000,1.467,0.000,0.000,25.587
952,3.759,1.625,0.403,0.000,1.496,0.000,0.000,25.610
969,3.761,1.625,0.410,0.000,1.525,0.000,0.000,25.647
986,3.762,1.625,0.418,0.000,1.554,0.000,0.000,25.681
1003,3.764,1.625,0.426,0.000,1.582,0.000,0.000,25.651
1020,3.766,1.625,0.433,0.000,1.611,0.000,0.000,25.636
1037,3.767,1.625,0.441,0.000,1.640,0.000,0.000,25.692
1054,3.769,1.625,0.449,0.000,1.669,0.000,0.000,25.610
1071,3.771,1.625,0.456,0.000,1.698,0.000,0.000,25.710
1088,3.772,1.625,0.464,0.000,1.727,0.000,0.000,25.684
1105,3.774,1.625,0.472,0.000,1.756,0.000,0.000,25.672
1122,3.776,1.625,0.479,0.000,1.785,0.000,0.000,25.675
1139,3.778,1.625,0.487,0.000,1.814,0.000,0.000,25.698
1156,3.779,1.625,0.495,0.000,1.843,0.000,0.000,25.695
1173,3.781,1.625,0.503,0.000,1.872,0.000,0.000,25.738
1190,3.783,1.625,0.510,0.000,1.901,0.000,0.000,25.745
1207,3.785,1.625,0.518,0.000,1.930,0.000,0.000,25.740
1224,3.786,1.625,0.526,0.000,1.959,0.000,0.000,25.734
1241,3.788,1.625,0.533,0.000,1.988,0.000,0.000,25.725
1258,3.790,1.625,0.541,0.000,2.017,0.000,0.000,25.728
1275,3.791,1.625,0.549,0.000,2.046,0.000,0.000,25.738
1292,3.793,1.625,0.556,0.000,2.075,0.000,0.000,25.745
1309,3.795,1.625,0.564,0.000,2.105,0.000,0.000,25.778
1326,3.797,1.625,0.572,0.000,2.134,0.000,0.000,25.738
1343,3.798,1.625,0.579,0.000,2.163,0.000,0.000,25.787
1360,3.800,1.625,0.587,0.000,2.192,0.000,0.000,25.750
1377,3.802,1.625,0.595,0.000,2.221,0.000,0.000,25.784
1394,3.804,1.625,0.602,0.000,2.250,0.000,0.000,25.756
1411,3.806,1.625,0.610,0.000,2.280,0.000,0.000,25.796
1428,3.808,1.625,0.618,0.000,2.309,0.000,0.000,25.758
1445,3.809,1.625,0.625,0.000,2.338,0.000,0.000,25.753
1462,3.811,1.625,0.633,0.000,2.367,0.000,0.000,25.775
1479,3.813,1.625,0.641,0.000,2.397,0.000,0.000,25.796
1496,3.815,1.625,0.648,0.000,2.426,0.000,0.000,25.780
1513,3.817,1.625,0.656,0.000,2.455,0.000,0.000,25.790
1530,3.819,1.625,0.664,0.000,2.484,0.000,0.000,25.793
1547,3.821,1.625,0.671,0.000,2.514,0.000,0.000,25.784
1564,3.823,1.625,0.679,0.000,2.543,0.000,0.000,25.785
1581,3.825,1.625,0.687,0.000,2.572,0.000,0.000,25.761
1598,3.827,1.625,0.694,0.000,2.602,0.000,0.000,25.775
1615,3.829,1.625,0.702,0.000,2.631,0.000,0.000,25.755
1632,3.831,1.625,0.710,0.000,2.661,0.000,0.000,25.816
1649,3.833,1.625,0.717,0.000,2.690,0.000,0.000,25.793
1666,3.835,1.625,0.725,0.000,2.719,0.000,0.000,25.796
1683,3.837,1.625,0.733,0.000,2.749,0.000,0.000,25.779
1700,3.839,1.625,0.740,0.000,2.778,0.000,0.000,25.782
1717,3.841,1.625,0.748,0.000,2.808,0.000,0.000,25.776
1734,3.843,1.625,0.756,0.000,2.837,0.000,0.000,25.785
1751,3.845,1.625,0.763,0.000,2.867,0.000,0.000,25.757
1768,3.848,1.625,0.771,0.000,2.896,0.000,0.000,25.795
1785,3.850,1.625,0.779,0.000,2.926,0.000,0.000,25.771
1802,3.852,1.625,0.787,0.000,2.955,0.000,0.000,25.767
1819,3.854,1.625,0.794,0.000,2.985,0.000,0.000,25.780
1836,3.856,1.625,0.802,0.000,3.015,0.000,0.000,25.782
1853,3.859,1.625,0.810,0.000,3.044,0.000,0.000,25.801
1870,3.861,1.625,0.817,0.000,3.074,0.000,0.000,25.784
1887,3.863,1.625,0.825,0.000,3.103,0.000,0.000,25.775
1904,3.865,1.625,0.833,0.000,3.133,0.000,0.000,25.802
1921,3.868,1.625,0.840,0.000,3.163,0.000,0.000,25.782
1938,3.870,1.625,0.848,0.000,3.192,0.000,0.000,25.729
1955,3.872,1.625,0.856,0.000,3.222,0.000,0.000,25.760
1972,3.875,1.625,0.863,0.000,3.252,0.000,0.000,25.735
1989,3.877,1.625,0.871,0.000,3.282,0.000,0.000,25.769
2006,3.879,1.625,0.879,0.000,3.311,0.000,0.000,25.748
2023,3.881,1.625,0.886,0.000,3.341,0.000,0.000,25.779
2040,3.884,1.625,0.894,0.000,3.371,0.000,0.000,25.748
2057,3.886,1.625,0.902,0.000,3.401,0.000,0.000,25.760
2074,3.889,1.625,0.909,0.000,3.431,0.000,0.000,25.760
2091,3.891,1.625,0.917,0.000,3.461,0.000,0.000,25.772
2108,3.893,1.625,0.925,0.000,3.490,0.000,0.000,25.714
2125,3.896,1.625,0.932,0.000,3.520,0.000,0.000,25.757
2142,3.898,1.625,0.940,0.000,3.550,0.000,0.000,25.714
2159,3.900,1.625,0.948,0.000,3.580,0.000,0.000,25.740
2176,3.903,1.625,0.955,0.000,3.610,0.000,0.000,25.710
2193,3.905,1.625,0.963,0.000,3.640,0.000,0.000,25.732
2210,3.908,1.625,0.971,0.000,3.670,0.000,0.000,25.697
2227,3.910,1.625,0.978,0.000,3.700,0.000,0.000,25.715
2244,3.912,1.625,0.986,0.000,3.730,0.000,0.000,25.705
2261,3.915,1.625,0.994,0.000,3.760,0.000,0.000,25.726
2278,3.917,1.625,1.001,0.000,3.790,0.000,0.000,25.683
2295,3.919,1.625,1.009,0.000,3.820,0.000,0.000,25.709
2312,3.922,1.625,1.017,0.000,3.850,0.000,0.000,25.680
2329,3.924,1.625,1.024,0.000,3.880,0.000,0.000,25.727
2346,3.927,1.625,1.032,0.000,3.911,0.000,0.000,25.682
2363,3.929,1.625,1.040,0.000,3.941,0.000,0.000,25.624
2380,3.931,1.625,1.047,0.000,3.971,0.000,0.000,25.656
2397,3.934,1.625,1.055,0.000,4.001,0.000,0.000,25.643
2414,3.936,1.625,1.063,0.000,4.031,0.000,0.000,25.695
2431,3.939,1.625,1.071,0.000,4.061,0.000,0.000,25.667
2448,3.941,1.625,1.078,0.000,4.092,0.000,0.000,25.636
2465,3.943,1.625,1.086,0.000,4.122,0.000,0.000,25.620
2482,3.945,1.625,1.094,0.000,4.152,0.000,0.000,25.691
2499,3.948,1.625,1.101,0.000,4.183,0.000,0.000,25.661
2516,3.950,1.625,1.109,0.000,4.213,0.000,0.000,25.606
2533,3.953,1.625,1.117,0.000,4.243,0.000,0.000,25.603
2550,3.955,1.625,1.124,0.000,4.274,0.000,0.000,25.589
2567,3.957,1.625,1.132,0.000,4.304,0.000,0.000,25.654
2584,3.960,1.625,1.140,0.000,4.334,0.000,0.000,25.610
2601,3.962,1.625,1.147,0.000,4.365,0.000,0.000,25.642
2618,3.964,1.625,1.155,0.000,4.395,0.000,0.000,25.585
2635,3.966,1.625,1.163,0.000,4.426,0.000,0.000,25.525
2652,3.969,1.625,1.170,0.000,4.456,0.000,0.000,25.622
2669,3.971,1.625,1.178,0.000,4.486,0.000,0.000,25.640
2686,3.973,1.625,1.186,0.000,4.517,0.000,0.000,25.593
2703,3.976,1.625,1.193,0.000,4.547,0.000,0.000,25.597
2720,3.978,1.625,1.201,0.000,4.578,0.000,0.000,25.632
2737,3.980,1.625,1.209,0.000,4.609,0.000,0.000,25.630
2754,3.983,1.625,1.216,0.000,4.639,0.000,0.000,25.645
2771,3.985,1.625,1.224,0.000,4.670,0.000,0.000,25.625
2788,3.987,1.625,1.232,0.000,4.700,0.000,0.000,25.621
2805,3.989,1.625,1.239,0.000,4.731,0.000,0.000,25.608
2822,3.992,1.625,1.247,0.000,4.762,0.000,0.000,25.553
2839,3.994,1.625,1.255,0.000,4.792,0.000,0.000,25.597
2856,3.996,1.625,1.262,0.000,4.823,0.000,0.000,25.634
2873,3.999,1.625,1.270,0.000,4.854,0.000,0.000,25.654
2890,4.001,1.625,1.278,0.000,4.884,0.000,0.000,25.564
2907,4.003,1.625,1.285,0.000,4.915,0.000,0.000,25.588
2924,4.005,1.625,1.293,0.000,4.946,0.000,0.000,25.615
2941,4.008,1.625,1.301,0.000,4.976,0.000,0.000,25.578
2958,4.010,1.625,1.308,0.000,5.007,0.000,0.000,25.601
2975,4.012,1.625,1.316,0.000,5.038,0.000,0.000,25.596
2992,4.015,1.625,1.324,0.000,5.069,0.000,0.000,25.618
3009,4.017,1.625,1.331,0.000,5.100,0.000,0.000,25.665
3026,4.019,1.625,1.339,0.000,5.130,0.000,0.000,25.613
3043,4.021,1.625,1.347,0.000,5.161,0.000,0.000,25.617
3060,4.024,1.625,1.355,0.000,5.192,0.000,0.000,25.606
3077,4.026,1.625,1.362,0.000,5.223,0.000,0.000,25.649
3094,4.028,1.625,1.370,0.000,5.254,0.000,0.000,25.619
3111,4.031,1.625,1.378,0.000,5.285,0.000,0.000,25.645
3128,4.033,1.625,1.385,0.000,5.316,0.000,0.000,25.614
3145,4.035,1.625,1.393,0.000,5.347,0.000,0.000,25.643
3162,4.038,1.625,1.401,0.000,5.378,0.000,0.000,25.671
3179,4.040,1.625,1.408,0.000,5.409,0.000,0.000,25.606
3196,4.042,1.625,1.416,0.000,5.440,0.000,0.000,25.666
3213,4.045,1.625,1.424,0.000,5.471,0.000,0.000,25.649
3230,4.047,1.625,1.431,0.000,5.502,0.000,0.000,25.675
3247,4.049,1.625,1.439,0.000,5.533,0.000,0.000,25.658
3264,4.052,1.625,1.447,0.000,5.564,0.000,0.000,25.673
3281,4.054,1.625,1.454,0.000,5.595,0.000,0.000,25.665
3298,4.056,1.625,1.462,0.000,5.626,0.000,0.000,25.689
3315,4.059,1.625,1.470,0.000,5.657,0.000,0.000,25.677
3332,4.061,1.625,1.477,0.000,5.689,0.000,0.000,25.699
3349,4.064,1.625,1.485,0.000,5.720,0.000,0.000,25.629
3366,4.066,1.625,1.493,0.000,5.751,0.000,0.000,25.683
3383,4.069,1.625,1.500,0.000,5.782,0.000,0.000,25.735
3400,4.071,1.625,1.508,0.000,5.813,0.000,0.000,25.780
3417,4.074,1.625,1.516,0.000,5.845,0.000,0.000,25.816
3434,4.076,1.625,1.523,0.000,5.876,0.000,0.000,25.791
3451,4.079,1.625,1.531,0.000,5.907,0.000,0.000,25.862
3468,4.081,1.625,1.539,0.000,5.939,0.000,0.000,25.820
3485,4.084,1.625,1.546,0.000,5.970,0.000,0.000,25.806
3502,4.086,1.625,1.554,0.000,6.001,0.000,0.000,25.776
3519,4.089,1.625,1.562,0.000,6.033,0.000,0.000,25.730
3536,4.092,1.625,1.569,0.000,6.064,0.000,0.000,25.761
3553,4.094,1.625,1.577,0.000,6.095,0.000,0.000,25.816
3570,4.097,1.625,1.585,0.000,6.127,0.000,0.000,25.794
3587,4.100,1.625,1.592,0.000,6.158,0.000,0.000,25.821
3604,4.102,1.625,1.600,0.000,6.190,0.000,0.000,25.946
3621,4.105,1.625,1.608,0.000,6.221,0.000,0.000,26.089
3638,4.108,1.625,1.615,0.000,6.253,0.000,0.000,26.255
3655,4.111,1.625,1.623,0.000,6.284,0.000,0.000,26.348
3672,4.113,1.625,1.631,0.000,6.316,0.000,0.000,26.485
3689,4.116,1.625,1.639,0.000,6.348,0.000,0.000,26.481
3706,4.119,1.625,1.646,0.000,6.379,0.000,0.000,26.293
3723,4.122,1.625,1.654,0.000,6.411,0.000,0.000,26.230
3740,4.125,1.625,1.662,0.000,6.442,0.000,0.000,26.117
3757,4.128,1.625,1.669,0.000,6.474,0.000,0.000,26.020
3774,4.130,1.625,1.677,0.000,6.506,0.000,0.000,25.995
3791,4.134,1.625,1.685,0.000,6.537,0.000,0.000,25.913
3808,4.136,1.625,1.692,0.000,6.569,0.000,0.000,25.881
3825,4.140,1.625,1.700,0.000,6.601,0.000,0.000,25.900
3842,4.143,1.625,1.708,0.000,6.633,0.000,0.000,25.873
3859,4.146,1.625,1.715,0.000,6.665,0.000,0.000,25.876
3876,4.149,1.625,1.723,0.000,6.696,0.000,0.000,25.872
3893,4.152,1.625,1.731,0.000,6.728,0.000,0.000,25.870
3910,4.156,1.625,1.738,0.000,6.760,0.000,0.000,25.886
3927,4.158,1.625,1.746,0.000,6.792,0.000,0.000,25.893
3944,4.162,1.625,1.754,0.000,6.824,0.000,0.000,25.893
3961,4.165,1.625,1.761,0.000,6.856,0.000,0.000,25.876
3978,4.168,1.625,1.769,0.000,6.888,0.000,0.000,25.920
3995,4.172,1.625,1.777,0.000,6.920,0.000,0.000,25.954
4012,4.175,1.625,1.784,0.000,6.952,0.000,0.000,25.946
4029,4.178,1.625,1.792,0.000,6.984,0.000,0.000,25.947
4046,4.181,1.625,1.800,0.000,7.016,0.000,0.000,25.910
4063,4.185,1.625,1.807,0.000,7.048,0.000,0.000,26.006
4080,4.188,1.625,1.815,0.000,7.080,0.000,0.001,25.971
4097,4.191,1.625,1.823,0.000,7.112,0.000,0.000,25.966
4114,4.194,1.625,1.830,0.000,7.145,0.000,0.000,25.982
4131,4.198,1.625,1.838,0.000,7.177,0.000,0.000,25.947
4148,4.200,1.614,1.846,0.000,7.208,0.000,0.000,25.985
4165,4.200,1.564,1.853,0.000,7.240,0.000,0.000,26.007
4182,4.200,1.524,1.860,0.000,7.270,0.000,0.000,25.959
4199,4.200,1.489,1.867,0.000,7.300,0.000,0.000,26.000
4216,4.200,1.456,1.874,0.000,7.329,0.000,0.000,25.965
4233,4.200,1.427,1.881,0.000,7.358,0.000,0.000,25.949
4250,4.200,1.400,1.888,0.000,7.386,0.000,0.000,25.931
4267,4.200,1.373,1.894,0.000,7.413,0.000,0.000,25.917
4284,4.200,1.348,1.901,0.000,7.440,0.000,0.000,25.904
4301,4.200,1.323,1.907,0.000,7.467,0.000,0.000,25.945
4318,4.200,1.300,1.913,0.000,7.493,0.000,0.000,25.925
4335,4.200,1.277,1.919,0.000,7.518,0.000,0.000,25.899
4352,4.200,1.254,1.925,0.000,7.543,0.000,0.000,25.823
4369,4.200,1.234,1.931,0.000,7.568,0.000,0.000,25.850
4386,4.200,1.213,1.937,0.000,7.592,0.000,0.000,25.875
4403,4.200,1.192,1.943,0.000,7.616,0.000,0.000,25.814
4420,4.200,1.173,1.948,0.000,7.640,0.000,0.000,25.880
4437,4.200,1.153,1.954,0.000,7.663,0.000,0.000,25.739
4454,4.200,1.134,1.959,0.000,7.685,0.000,0.000,25.720
4471,4.200,1.116,1.964,0.000,7.708,0.000,0.000,25.715
4488,4.200,1.098,1.970,0.000,7.730,0.000,0.000,25.734
4505,4.200,1.081,1.975,0.000,7.751,0.000,0.000,25.708
4522,4.200,1.065,1.980,0.000,7.772,0.000,0.000,25.712
4539,4.200,1.049,1.985,0.000,7.793,0.000,0.000,25.628
4556,4.200,1.033,1.990,0.000,7.814,0.000,0.000,25.699
4573,4.200,1.018,1.995,0.000,7.834,0.000,0.000,25.645
4590,4.200,1.003,1.999,0.000,7.854,0.000,0.000,25.580
4607,4.200,0.989,2.004,0.000,7.874,0.000,0.000,25.538
4624,4.200,0.974,2.009,0.000,7.894,0.000,0.000,25.565
4641,4.200,0.961,2.013,0.000,7.913,0.000,0.000,25.525
4658,4.200,0.947,2.018,0.000,7.932,0.000,0.000,25.617
4675,4.200,0.934,2.022,0.000,7.950,0.000,0.000,25.579
4692,4.200,0.921,2.027,0.000,7.969,0.000,0.000,25.531
4709,4.200,0.908,2.031,0.000,7.987,0.000,0.000,25.462
4726,4.200,0.895,2.035,0.000,8.005,0.000,0.000,25.477
4743,4.200,0.884,2.039,0.000,8.022,0.000,0.000,25.461
4760,4.200,0.871,2.044,0.000,8.040,0.000,0.000,25.452
4777,4.200,0.861,2.048,0.000,8.057,0.000,0.000,25.475
4794,4.200,0.850,2.052,0.000,8.074,0.000,0.000,25.374
4811,4.200,0.839,2.056,0.000,8.091,0.000,0.000,25.363
4828,4.200,0.827,2.060,0.000,8.107,0.000,0.000,25.394
4845,4.200,0.816,2.063,0.000,8.123,0.000,0.000,25.321
4862,4.200,0.806,2.067,0.000,8.140,0.000,0.000,25.316
4879,4.200,0.796,2.071,0.000,8.155,0.000,0.000,25.335
4896,4.200,0.786,2.075,0.000,8.171,0.000,0.000,25.317
4913,4.200,0.776,2.078,0.000,8.187,0.000,0.000,25.296
4930,4.200,0.766,2.082,0.000,8.202,0.000,0.000,25.322
4947,4.200,0.756,2.086,0.000,8.217,0.000,0.000,25.285
4964,4.200,0.747,2.089,0.000,8.232,0.000,0.000,25.322
4981,4.200,0.738,2.093,0.000,8.247,0.000,0.000,25.260
4998,4.200,0.729,2.096,0.000,8.261,0.000,0.000,25.242
5015,4.200,0.719,2.100,0.000,8.275,0.000,0.000,25.210
5032,4.200,0.710,2.103,0.000,8.290,0.000,0.000,25.272
5049,4.200,0.702,2.106,0.000,8.304,0.000,0.000,25.213
5066,4.200,0.692,2.110,0.000,8.317,0.000,0.000,25.209
5083,4.200,0.684,2.113,0.000,8.331,0.000,0.000,25.209
5100,4.200,0.676,2.116,0.000,8.345,0.000,0.000,25.150
5117,4.200,0.667,2.119,0.000,8.358,0.000,0.000,25.118
5134,4.200,0.659,2.122,0.000,8.371,0.000,0.000,25.129
5151,4.200,0.651,2.125,0.000,8.384,0.000,0.000,25.129
5168,4.200,0.642,2.129,0.000,8.397,0.000,0.000,25.112
5185,4.200,0.635,2.132,0.000,8.410,0.000,0.000,25.129
5202,4.200,0.627,2.135,0.000,8.422,0.000,0.000,25.121
5219,4.200,0.619,2.137,0.000,8.434,0.000,0.000,25.078
5236,4.200,0.611,2.140,0.000,8.447,0.000,0.000,25.053
5253,4.200,0.603,2.143,0.000,8.459,0.000,0.000,25.026
5270,4.200,0.596,2.146,0.000,8.470,0.000,0.000,25.059
5287,4.200,0.587,2.149,0.000,8.482,0.000,0.000,25.078
5304,4.200,0.580,2.152,0.000,8.494,0.000,0.000,25.028
5321,4.200,0.572,2.154,0.000,8.505,0.000,0.000,25.045
5338,4.200,0.565,2.157,0.000,8.517,0.000,0.000,25.001
5355,4.200,0.557,2.160,0.000,8.528,0.000,0.000,25.013
5372,4.200,0.551,2.162,0.000,8.539,0.000,0.000,25.015
5389,4.200,0.543,2.165,0.000,8.549,0.000,0.000,25.006
5406,4.200,0.536,2.167,0.000,8.560,0.000,0.000,24.977
5423,4.200,0.529,2.170,0.000,8.571,0.000,0.000,24.987
5440,4.200,0.522,2.172,0.000,8.581,0.000,0.000,24.942
5457,4.200,0.515,2.175,0.000,8.591,0.000,0.000,24.966
5474,4.200,0.508,2.177,0.000,8.602,0.000,0.000,24.958
5491,4.200,0.501,2.180,0.000,8.612,0.000,0.000,24.936
5508,4.200,0.495,2.182,0.000,8.621,0.000,0.000,24.919
5525,4.200,0.489,2.184,0.000,8.631,0.000,0.000,24.907
5542,4.200,0.481,2.187,0.000,8.641,0.000,0.000,24.903
5559,4.200,0.475,2.189,0.000,8.650,0.000,0.000,24.898
5576,4.200,0.468,2.191,0.000,8.660,0.000,0.000,24.923
5593,4.200,0.462,2.193,0.000,8.669,0.000,0.000,24.950
5610,4.200,0.455,2.195,0.000,8.678,0.000,0.000,24.902
5627,4.200,0.449,2.198,0.000,8.687,0.000,0.000,24.864
5644,4.200,0.443,2.200,0.000,8.696,0.000,0.000,24.886
5661,4.200,0.437,2.202,0.000,8.705,0.000,0.000,24.841
5678,4.200,0.430,2.204,0.000,8.713,0.000,0.000,24.855
5695,4.200,0.425,2.206,0.000,8.722,0.000,0.000,24.870
5712,4.200,0.419,2.208,0.000,8.730,0.000,0.000,24.842
5729,4.200,0.412,2.210,0.000,8.738,0.000,0.000,24.848
5746,4.200,0.407,2.212,0.000,8.746,0.000,0.000,24.797
5763,4.200,0.401,2.214,0.000,8.754,0.000,0.000,24.865
5780,4.200,0.395,2.216,0.000,8.762,0.000,0.000,24.816
5797,4.200,0.390,2.217,0.000,8.770,0.000,0.000,24.798
5814,4.200,0.384,2.219,0.000,8.778,0.000,0.000,24.809
5831,4.200,0.378,2.221,0.000,8.785,0.000,0.000,24.794
5848,4.200,0.373,2.223,0.000,8.793,0.000,0.000,24.768
5865,4.200,0.368,2.225,0.000,8.800,0.000,0.000,24.802
5882,4.200,0.362,2.226,0.000,8.807,0.000,0.000,24.771
5899,4.200,0.357,2.228,0.000,8.814,0.000,0.000,24.734
5916,4.200,0.351,2.230,0.000,8.821,0.000,0.000,24.784
5933,4.200,0.346,2.231,0.000,8.828,0.000,0.000,24.736
5950,4.200,0.341,2.233,0.000,8.835,0.000,0.000,24.744
5967,4.200,0.336,2.235,0.000,8.842,0.000,0.000,24.758
5984,4.200,0.331,2.236,0.000,8.849,0.000,0.000,24.702
6001,4.200,0.327,2.238,0.000,8.855,0.000,0.000,24.715
6018,4.200,0.322,2.239,0.000,8.861,0.000,0.000,24.700
6035,4.200,0.317,2.241,0.000,8.868,0.000,0.000,24.723
6052,4.200,0.311,2.242,0.000,8.874,0.000,0.000,24.722
6069,4.200,0.307,2.244,0.000,8.880,0.000,0.000,24.716
6086,4.200,0.303,2.245,0.000,8.886,0.000,0.000,24.666
6103,4.200,0.298,2.246,0.000,8.892,0.000,0.000,24.693
6120,4.200,0.293,2.248,0.000,8.898,0.000,0.000,24.690
6137,4.200,0.289,2.249,0.000,8.904,0.000,0.000,24.695
6154,4.200,0.284,2.251,0.000,8.909,0.000,0.000,24.702
6171,4.200,0.279,2.252,0.000,8.915,0.000,0.000,24.708
6188,4.200,0.275,2.253,0.000,8.921,0.000,0.000,24.704
6205,4.200,0.272,2.255,0.000,8.926,0.000,0.000,24.658
6222,4.200,0.267,2.256,0.000,8.931,0.000,0.000,24.690
6239,4.200,0.262,2.257,0.000,8.937,0.000,0.000,24.654
6256,4.200,0.259,2.258,0.000,8.942,0.000,0.000,24.634
6273,4.200,0.255,2.259,0.000,8.947,0.000,0.000,24.668
6290,4.200,0.251,2.261,0.000,8.952,0.000,0.000,24.629
6307,4.200,0.246,2.262,0.000,8.957,0.000,0.000,24.646
6324,4.200,0.244,2.263,0.000,8.962,0.000,0.000,24.640
6341,4.200,0.240,2.264,0.000,8.966,0.000,0.000,24.643
6358,4.200,0.237,2.265,0.000,8.971,0.000,0.000,24.648
6375,4.200,0.232,2.266,0.000,8.976,0.000,0.000,24.647
6392,4.200,0.230,2.267,0.000,8.980,0.000,0.000,24.629
6409,4.200,0.225,2.269,0.000,8.985,0.000,0.000,24.615
6426,4.200,0.221,2.270,0.000,8.989,0.000,0.000,24.668
6443,4.200,0.217,2.271,0.000,8.994,0.000,0.000,24.634
6460,4.200,0.215,2.272,0.000,8.998,0.000,0.000,24.620
6477,4.200,0.211,2.273,0.000,9.002,0.000,0.000,24.635
6494,4.200,0.208,2.274,0.000,9.006,0.000,0.000,24.655
6511,4.200,0.205,2.275,0.000,9.010,0.000,0.000,24.609
6528,4.200,0.202,2.276,0.000,9.014,0.000,0.000,24.645
6545,4.200,0.198,2.277,0.000,9.018,0.000,0.000,24.627
6562,4.200,0.196,2.277,0.000,9.022,0.000,0.000,24.615
6579,4.200,0.192,2.278,0.000,9.026,0.000,0.000,24.606
6596,4.200,0.189,2.279,0.000,9.030,0.000,0.000,24.592
6613,4.200,0.186,2.280,0.000,9.034,0.000,0.000,24.588
6630,4.200,0.184,2.281,0.000,9.037,0.000,0.000,24.592
6647,4.200,0.182,2.282,0.000,9.041,0.000,0.000,24.595
6664,4.200,0.178,2.283,0.000,9.044,0.000,0.000,24.573
6681,4.200,0.175,2.284,0.000,9.048,0.000,0.000,24.623
6698,4.200,0.173,2.284,0.000,9.051,0.000,0.000,24.574
6715,4.200,0.169,2.285,0.000,9.055,0.000,0.000,24.565
6732,4.200,0.167,2.286,0.000,9.058,0.000,0.000,24.581
6749,4.200,0.164,2.287,0.000,9.061,0.000,0.000,24.573
6766,4.200,0.162,2.288,0.000,9.065,0.000,0.000,24.584
6783,4.200,0.159,2.288,0.000,9.068,0.000,0.000,24.581
6800,4.200,0.157,2.289,0.000,9.071,0.000,0.000,24.583
6817,4.200,0.154,2.290,0.000,9.074,0.000,0.000,24.559
6834,4.200,0.152,2.291,0.000,9.077,0.000,0.000,24.554
6851,4.200,0.150,2.291,0.000,9.080,0.000,0.000,24.596
6868,4.200,0.147,2.292,0.000,9.083,0.000,0.000,24.598
6885,4.200,0.145,2.293,0.000,9.086,0.000,0.000,24.594
6902,4.200,0.143,2.293,0.000,9.089,0.000,0.000,24.577
6919,4.200,0.140,2.294,0.000,9.092,0.000,0.000,24.577
6936,4.200,0.140,2.295,0.000,9.094,0.000,0.000,24.565
6953,4.200,0.137,2.295,0.000,9.097,0.000,0.000,24.566
6970,4.200,0.134,2.296,0.000,9.100,0.000,0.000,24.549
6987,4.200,0.133,2.297,0.000,9.102,0.000,0.000,24.560
7004,4.200,0.130,2.297,0.000,9.105,0.000,0.000,24.548
7021,4.200,0.129,2.298,0.000,9.108,0.000,0.000,24.570
7038,4.200,0.127,2.298,0.000,9.110,0.000,0.000,24.562
7055,4.200,0.124,2.299,0.000,9.113,0.000,0.000,24.610
7072,4.200,0.123,2.300,0.000,9.115,0.000,0.000,24.552
7089,4.200,0.120,2.300,0.000,9.118,0.000,0.000,24.559
7106,4.200,0.119,2.301,0.000,9.120,0.000,0.000,24.556
7123,4.200,0.118,2.301,0.000,9.122,0.000,0.000,24.515
7140,4.200,0.116,2.302,0.000,9.125,0.000,0.000,24.549
7157,4.200,0.114,2.302,0.000,9.127,0.000,0.000,24.545
7174,4.200,0.112,2.303,0.000,9.129,0.000,0.000,24.552
7191,4.200,0.111,2.303,0.000,9.131,0.000,0.000,24.571
7208,4.200,0.108,2.304,0.000,9.133,0.000,0.000,24.557
7225,4.200,0.107,2.304,0.000,9.136,0.000,0.000,24.511
7242,4.200,0.106,2.305,0.000,9.138,0.000,0.000,24.528
7259,4.200,0.104,2.305,0.000,9.140,0.000,0.000,24.529
7276,4.200,0.102,2.306,0.000,9.142,0.000,0.000,24.513
7293,4.200,0.101,2.306,0.000,9.144,0.000,0.000,24.486
7310,4.200,0.100,2.307,0.000,9.146,0.000,0.000,24.535
7327,4.200,0.098,2.307,0.000,9.148,0.000,0.000,24.533
7344,4.200,0.097,2.308,0.000,9.150,0.000,0.000,24.521
7361,4.200,0.095,2.308,0.000,9.152,0.000,0.000,24.524
7378,4.200,0.095,2.309,0.000,9.154,0.000,0.000,24.535
7395,4.200,0.092,2.309,0.000,9.155,0.000,0.000,24.501
7412,4.200,0.091,2.310,0.000,9.157,0.000,0.000,24.513
7429,4.200,0.090,2.310,0.000,9.159,0.000,0.000,24.508
7446,4.200,0.089,2.310,0.000,9.161,0.000,0.000,24.510
7463,4.200,0.087,2.311,0.000,9.162,0.000,0.000,24.549
7480,4.200,0.086,2.311,0.000,9.164,0.000,0.000,24.543
7497,4.200,0.085,2.312,0.000,9.166,0.000,0.000,24.498
7514,4.200,0.084,2.312,0.000,9.168,0.000,0.000,24.480
7531,4.200,0.083,2.312,0.000,9.169,0.000,0.000,24.511
7548,4.200,0.082,2.313,0.000,9.171,0.000,0.000,24.511
7565,4.200,0.081,2.313,0.000,9.172,0.000,0.000,24.523
7582,4.200,0.079,2.314,0.000,9.174,0.000,0.000,24.486
7599,4.200,0.078,2.314,0.000,9.176,0.000,0.000,24.514
7616,4.200,0.077,2.314,0.000,9.177,0.000,0.000,24.502
7633,4.200,0.076,2.315,0.000,9.179,0.000,0.000,24.475
7650,4.200,0.075,2.315,0.000,9.180,0.000,0.000,24.509
7667,4.200,0.074,2.315,0.000,9.182,0.000,0.000,24.531
7684,4.200,0.073,2.316,0.000,9.183,0.000,0.000,24.497
7701,4.200,0.072,2.316,0.000,9.185,0.000,0.000,24.497
7718,4.200,0.072,2.316,0.000,9.186,0.000,0.000,24.503
7735,4.200,0.070,2.317,0.000,9.187,0.000,0.000,24.511
7752,4.200,0.070,2.317,0.000,9.189,0.000,0.000,24.488
7769,4.200,0.068,2.317,0.000,9.190,0.000,0.000,24.489
7786,4.200,0.067,2.318,0.000,9.191,0.000,0.000,24.511
7803,4.200,0.067,2.318,0.000,9.193,0.000,0.000,24.526
7819,4.200,0.065,2.318,0.000,9.194,0.000,0.000,24.503
7836,4.195,0.000,2.318,0.000,9.194,0.000,0.000,24.507
7853,4.194,0.000,2.318,0.000,9.194,0.000,0.000,24.535
7870,4.194,0.000,2.318,0.000,9.194,0.000,0.000,24.508
7887,4.193,0.000,2.318,0.000,9.194,0.000,0.000,24.490
7904,4.193,0.000,2.318,0.000,9.194,0.000,0.000,24.469
7921,4.193,0.000,2.318,0.000,9.194,0.000,0.000,24.484
7938,4.193,0.000,2.318,0.000,9.194,0.000,0.000,24.433
7955,4.192,0.000,2.318,0.000,9.194,0.000,0.000,24.491
7972,4.192,0.000,2.318,0.000,9.194,0.000,0.000,24.487
7989,4.192,0.000,2.318,0.000,9.194,0.000,0.000,24.526
8006,4.191,0.000,2.318,0.000,9.194,0.000,0.000,24.517
8023,4.191,0.000,2.318,0.000,9.194,0.000,0.000,24.517
8040,4.191,0.000,2.318,0.000,9.194,0.000,0.000,24.461
8057,4.191,0.000,2.318,0.000,9.194,0.000,0.000,24.492
8074,4.191,0.000,2.318,0.000,9.194,0.000,0.000,24.501
8091,4.190,0.000,2.318,0.000,9.194,0.000,0.000,24.487
8108,4.190,0.000,2.318,0.000,9.194,0.000,0.000,24.491
8125,4.190,0.000,2.318,0.000,9.194,0.000,0.000,24.475
8142,4.190,0.000,2.318,0.000,9.194,0.000,0.000,24.439
8159,4.190,0.000,2.318,0.000,9.194,0.000,0.000,24.482
8176,4.190,0.000,2.318,0.000,9.194,0.000,0.000,24.448
8193,4.189,0.000,2.318,0.000,9.194,0.000,0.000,24.517
8210,4.189,0.000,2.318,0.000,9.194,0.000,0.000,24.476
8227,4.189,0.000,2.318,0.000,9.194,0.000,0.000,24.441
8244,4.189,0.000,2.318,0.000,9.194,0.000,0.000,24.476
8261,4.189,0.000,2.318,0.000,9.194,0.000,0.000,24.470
8278,4.189,0.000,2.318,0.000,9.194,0.000,0.000,24.470
8295,4.189,0.000,2.318,0.000,9.194,0.000,0.000,24.502
8312,4.189,0.000,2.318,0.000,9.194,0.000,0.000,24.439
8329,4.188,0.000,2.318,0.000,9.194,0.000,0.000,24.480
8346,4.188,0.000,2.318,0.000,9.194,0.000,0.000,24.452
8363,4.188,0.000,2.318,0.000,9.194,0.000,0.000,24.449
8380,4.188,0.000,2.318,0.000,9.194,0.000,0.000,24.462
8397,4.188,0.000,2.318,0.000,9.194,0.000,0.000,24.482
8414,4.188,0.000,2.318,0.000,9.194,0.000,0.000,24.473
8431,4.188,0.000,2.318,0.000,9.194,0.000,0.000,24.497
8448,4.188,0.000,2.318,0.000,9.194,0.000,0.000,24.470
8465,4.187,0.000,2.318,0.000,9.194,0.000,0.000,24.488
8482,4.187,0.000,2.318,0.000,9.194,0.000,0.000,24.461
8499,4.187,0.000,2.318,0.000,9.194,0.000,0.000,24.496
8516,4.187,0.000,2.318,0.000,9.194,0.000,0.000,24.477
8533,4.187,0.000,2.318,0.000,9.194,0.000,0.000,24.502
8550,4.187,0.000,2.318,0.000,9.194,0.000,0.000,24.458
8567,4.187,0.000,2.318,0.000,9.194,0.000,0.000,24.454
8584,4.187,0.000,2.318,0.000,9.194,0.000,0.000,24.481
8601,4.187,0.000,2.318,0.000,9.194,0.000,0.000,24.462
8618,4.187,0.000,2.318,0.000,9.194,0.000,0.000,24.501
8635,4.187,0.000,2.318,0.000,9.194,0.000,0.000,24.453
8652,4.186,0.000,2.318,0.000,9.194,0.000,0.000,24.496
8669,4.186,0.000,2.318,0.000,9.194,0.000,0.000,24.496
8686,4.186,0.000,2.318,0.000,9.194,0.000,0.000,24.472
8703,4.186,0.000,2.318,0.000,9.194,0.000,0.000,24.495
8720,4.186,0.000,2.318,0.000,9.194,0.000,0.000,24.465
8737,4.186,0.000,2.318,0.000,9.194,0.000,0.000,24.457
8754,4.186,0.000,2.318,0.000,9.194,0.000,0.000,24.480
8771,4.186,0.000,2.318,0.000,9.194,0.000,0.000,24.490
8788,4.186,0.000,2.318,0.000,9.194,0.000,0.000,24.473
8805,4.186,0.000,2.318,0.000,9.194,0.000,0.000,24.451
8822,4.186,0.000,2.318,0.000,9.194,0.000,0.000,24.472
8839,4.186,0.000,2.318,0.000,9.194,0.000,0.000,24.477
8856,4.185,0.000,2.318,0.000,9.194,0.000,0.000,24.439
8873,4.186,0.000,2.318,0.000,9.194,0.000,0.000,24.470
8890,4.185,0.000,2.318,0.000,9.194,0.000,0.000,24.492
8907,4.185,0.000,2.318,0.000,9.194,0.000,0.000,24.453
8924,4.185,0.000,2.318,0.000,9.194,0.000,0.000,24.457
8941,4.185,0.000,2.318,0.000,9.194,0.000,0.000,24.446
8958,4.185,0.000,2.318,0.000,9.194,0.000,0.000,24.499
8975,4.185,0.000,2.318,0.000,9.194,0.000,0.000,24.456
8992,4.185,0.000,2.318,0.000,9.194,0.000,0.000,24.502
9009,4.185,0.000,2.318,0.000,9.194,0.000,0.000,24.481
9026,4.185,0.000,2.318,0.000,9.194,0.000,0.000,24.509
9043,4.185,0.000,2.318,0.000,9.194,0.000,0.000,24.479
9060,4.185,0.000,2.318,0.000,9.194,0.000,0.000,24.515
9077,4.185,0.000,2.318,0.000,9.194,0.000,0.000,24.478
9094,4.185,0.000,2.318,0.000,9.194,0.000,0.000,24.480
9111,4.185,0.000,2.318,0.000,9.194,0.000,0.000,24.454
9128,4.185,0.000,2.318,0.000,9.194,0.000,0.000,24.473
9145,4.185,0.000,2.318,0.000,9.194,0.000,0.000,24.461
9162,4.184,0.000,2.318,0.000,9.194,0.000,0.000,24.458
9179,4.184,0.000,2.318,0.000,9.194,0.000,0.000,24.458
9196,4.184,0.000,2.318,0.000,9.194,0.000,0.000,24.483
9213,4.184,0.000,2.318,0.000,9.194,0.000,0.000,24.485
9230,4.184,0.000,2.318,0.000,9.194,0.000,0.000,24.492
9247,4.184,0.000,2.318,0.000,9.194,0.000,0.000,24.435
9264,4.184,0.000,2.318,0.000,9.194,0.000,0.000,24.464
9281,4.184,0.000,2.318,0.000,9.194,0.000,0.000,24.410
9298,4.184,0.000,2.318,0.000,9.194,0.000,0.000,24.464
9315,4.184,0.000,2.318,0.000,9.194,0.000,0.000,24.447
9332,4.184,0.000,2.318,0.000,9.194,0.000,0.000,24.475
9349,4.184,0.000,2.318,0.000,9.194,0.000,0.000,24.446
9366,4.184,0.000,2.318,0.000,9.194,0.000,0.000,24.507
9383,4.184,0.000,2.318,0.000,9.194,0.000,0.000,24.459
9400,4.184,0.000,2.318,0.000,9.194,0.000,0.000,24.475
9417,4.184,0.000,2.318,0.000,9.194,0.000,0.000,24.483
9434,4.184,0.000,2.318,0.000,9.194,0.000,0.000,24.475
9451,4.183,0.000,2.318,0.000,9.194,0.000,0.000,24.483
9468,4.183,0.000,2.318,0.000,9.194,0.000,0.000,24.437
9485,4.183,0.000,2.318,0.000,9.194,0.000,0.000,24.473
9502,4.183,0.000,2.318,0.000,9.194,0.000,0.000,24.461
9519,4.183,0.000,2.318,0.000,9.194,0.000,0.000,24.418
9536,4.183,0.000,2.318,0.000,9.194,0.000,0.000,24.476
9553,4.183,0.000,2.318,0.000,9.194,0.000,0.000,24.456
9570,4.183,0.000,2.318,0.000,9.194,0.000,0.000,24.500
9587,4.183,0.000,2.318,0.000,9.194,0.000,0.000,24.455
9604,4.183,0.000,2.318,0.000,9.194,0.000,0.000,24.433
9621,4.183,0.000,2.318,0.000,9.194,0.000,0.000,24.481
9638,4.183,0.000,2.318,0.000,9.194,0.000,0.000,24.479
9655,4.183,0.000,2.318,0.000,9.194,0.000,0.000,24.454
9672,4.183,0.000,2.318,0.000,9.194,0.000,0.000,24.464
9689,4.183,0.000,2.318,0.000,9.194,0.000,0.000,24.489
9706,4.183,0.000,2.318,0.000,9.194,0.000,0.000,24.463
9723,4.183,0.000,2.318,0.000,9.194,0.000,0.000,24.469
9740,4.183,0.000,2.318,0.000,9.194,0.000,0.000,24.487
9757,4.183,0.000,2.318,0.000,9.194,0.000,0.000,24.484
9774,4.183,0.000,2.318,0.000,9.194,0.000,0.000,24.499
9791,4.183,0.000,2.318,0.000,9.194,0.000,0.000,24.454
9808,4.183,0.000,2.318,0.000,9.194,0.000,0.000,24.488
9825,4.183,0.000,2.318,0.000,9.194,0.000,0.000,24.458
9842,4.182,0.000,2.318,0.000,9.194,0.000,0.000,24.521
9859,4.182,0.000,2.318,0.000,9.194,0.000,0.000,24.477
9876,4.182,0.000,2.318,0.000,9.194,0.000,0.000,24.464
9893,4.182,0.000,2.318,0.000,9.194,0.000,0.000,24.441
9910,4.182,0.000,2.318,0.000,9.194,0.000,0.000,24.437
9927,4.182,0.000,2.318,0.000,9.194,0.000,0.000,24.475
9944,4.182,0.000,2.318,0.000,9.194,0.000,0.000,24.459
9961,4.182,0.000,2.318,0.000,9.194,0.000,0.000,24.484
9978,4.182,0.000,2.318,0.000,9.194,0.000,0.000,24.495
9995,4.182,0.000,2.318,0.000,9.194,0.000,0.000,24.487
10012,4.182,0.000,2.318,0.000,9.194,0.000,0.000,24.471
10029,4.182,0.000,2.318,0.000,9.194,0.000,0.000,24.478
10046,4.182,0.000,2.318,0.000,9.194,0.000,0.000,24.461
10063,4.182,0.000,2.318,0.000,9.194,0.000,0.000,24.480
10080,4.182,0.000,2.318,0.000,9.194,0.000,0.000,24.455
10097,4.182,0.000,2.318,0.000,9.194,0.000,0.000,24.445
10114,4.182,0.000,2.318,0.000,9.194,0.000,0.000,24.420
10131,4.182,0.000,2.318,0.000,9.194,0.000,0.000,24.492
10148,4.182,0.000,2.318,0.000,9.194,0.000,0.000,24.417
10165,4.182,0.000,2.318,0.000,9.194,0.000,0.000,24.502
10182,4.182,0.000,2.318,0.000,9.194,0.000,0.000,24.461
10199,4.182,0.000,2.318,0.000,9.194,0.000,0.000,24.519
10216,4.182,0.000,2.318,0.000,9.194,0.000,0.000,24.479
10233,4.182,0.000,2.318,0.000,9.194,0.000,0.000,24.447
10250,4.182,0.000,2.318,0.000,9.194,0.000,0.000,24.488
10267,4.182,0.000,2.318,0.000,9.194,0.000,0.000,24.483
10284,4.182,0.000,2.318,0.000,9.194,0.000,0.000,24.464
10301,4.182,0.000,2.318,0.000,9.194,0.000,0.000,24.474
10318,4.181,0.000,2.318,0.000,9.194,0.000,0.000,24.471
10335,4.182,0.000,2.318,0.000,9.194,0.000,0.000,24.485
10352,4.182,0.000,2.318,0.000,9.194,0.000,0.000,24.483
10369,4.181,0.000,2.318,0.000,9.194,0.000,0.000,24.497
10386,4.182,0.000,2.318,0.000,9.194,0.000,0.000,24.465
10403,4.181,0.000,2.318,0.000,9.194,0.000,0.000,24.479
10420,4.181,0.000,2.318,0.000,9.194,0.000,0.000,24.475
10437,4.181,0.000,2.318,0.000,9.194,0.000,0.000,24.441
10454,4.181,0.000,2.318,0.000,9.194,0.000,0.000,24.475
10471,4.181,0.000,2.318,0.000,9.194,0.000,0.000,24.457
10488,4.181,0.000,2.318,0.000,9.194,0.000,0.000,24.475
10505,4.181,0.000,2.318,0.000,9.194,0.000,0.000,24.435
10522,4.181,0.000,2.318,0.000,9.194,0.000,0.000,24.467
10539,4.181,0.000,2.318,0.000,9.194,0.000,0.000,24.440
10556,4.181,0.000,2.318,0.000,9.194,0.000,0.000,24.491
10573,4.181,0.000,2.318,0.000,9.194,0.000,0.000,24.509
10590,4.181,0.000,2.318,0.000,9.194,0.000,0.000,24.501
10607,4.181,0.000,2.318,0.000,9.194,0.000,0.000,24.513
10624,4.181,0.000,2.318,0.000,9.194,0.000,0.000,24.477
10641,4.181,0.000,2.318,0.000,9.194,0.000,0.000,24.494
10658,4.181,0.000,2.318,0.000,9.194,0.000,0.000,24.488
10675,4.181,0.000,2.318,0.000,9.194,0.000,0.000,24.435
10692,4.181,0.000,2.318,0.000,9.194,0.000,0.000,24.491
10709,4.181,0.000,2.318,0.000,9.194,0.000,0.000,24.479
10726,4.181,0.000,2.318,0.000,9.194,0.000,0.000,24.451
10743,4.181,0.000,2.318,0.000,9.194,0.000,0.000,24.485
10760,4.181,0.000,2.318,0.000,9.194,0.000,0.000,24.449
10777,4.181,0.000,2.318,0.000,9.194,0.000,0.000,24.433
10794,4.181,0.000,2.318,0.000,9.194,0.000,0.000,24.450
10811,4.181,0.000,2.318,0.000,9.194,0.000,0.000,24.500
10828,4.181,0.000,2.318,0.000,9.194,0.000,0.000,24.469
10845,4.181,0.000,2.318,0.000,9.194,0.000,0.000,24.469
10862,4.181,0.000,2.318,0.000,9.194,0.000,0.000,24.496
10879,4.181,0.000,2.318,0.000,9.194,0.000,0.000,24.490
10896,4.181,0.000,2.318,0.000,9.194,0.000,0.000,24.430
10913,4.181,0.000,2.318,0.000,9.194,0.000,0.000,24.480
10930,4.181,0.000,2.318,0.000,9.194,0.000,0.000,24.460
10947,4.181,0.000,2.318,0.000,9.194,0.000,0.000,24.491
10964,4.181,0.000,2.318,0.000,9.194,0.000,0.000,24.427
10981,4.181,0.000,2.318,0.000,9.194,0.000,0.000,24.479
10998,4.180,0.000,2.318,0.000,9.194,0.000,0.000,24.473
11015,4.180,0.000,2.318,0.000,9.194,0.000,0.000,24.460
11032,4.181,0.000,2.318,0.000,9.194,0.000,0.000,24.479
11049,4.180,0.000,2.318,0.000,9.194,0.000,0.000,24.440
11066,4.180,0.000,2.318,0.000,9.194,0.000,0.000,24.460
11083,4.181,0.000,2.318,0.000,9.194,0.000,0.000,24.481
11100,4.180,0.000,2.318,0.000,9.194,0.000,0.000,24.499
11117,4.180,0.000,2.318,0.000,9.194,0.000,0.000,24.503
11134,4.180,0.000,2.318,0.000,9.194,0.000,0.000,24.498
11151,4.180,0.000,2.318,0.000,9.194,0.000,0.000,24.497
11168,4.180,0.000,2.318,0.000,9.194,0.000,0.000,24.533
11185,4.180,0.000,2.318,0.000,9.194,0.000,0.000,24.474
11202,4.180,0.000,2.318,0.000,9.194,0.000,0.000,24.507
11219,4.180,0.000,2.318,0.000,9.194,0.000,0.000,24.525
11236,4.180,0.000,2.318,0.000,9.194,0.000,0.000,24.504
11253,4.180,0.000,2.318,0.000,9.194,0.000,0.000,24.522
11270,4.180,0.000,2.318,0.000,9.194,0.000,0.000,24.497
11287,4.180,0.000,2.318,0.000,9.194,0.000,0.000,24.525
11304,4.180,0.000,2.318,0.000,9.194,0.000,0.000,24.529
11321,4.180,0.000,2.318,0.000,9.194,0.000,0.000,24.449
11338,4.180,0.000,2.318,0.000,9.194,0.000,0.000,24.519
11355,4.180,0.000,2.318,0.000,9.194,0.000,0.000,24.485
11372,4.180,0.000,2.318,0.000,9.194,0.000,0.000,24.501
11389,4.180,0.000,2.318,0.000,9.194,0.000,0.000,24.476
11406,4.180,0.000,2.318,0.000,9.194,0.000,0.000,24.467
11422,3.199,-16.753,2.318,0.014,9.194,0.045,-0.017,24.551
11439,3.038,-16.752,2.318,0.093,9.194,0.291,-0.007,26.899
11456,2.930,-16.751,2.318,0.172,9.194,0.527,-0.006,30.072
11473,2.834,-16.750,2.318,0.251,9.194,0.755,-0.006,33.242
11489,2.500,-16.749,2.318,0.326,9.194,0.961,-0.070,35.966
11506,3.910,0.000,2.318,0.326,9.194,0.962,0.005,37.937
11523,3.964,0.000,2.318,0.326,9.194,0.962,0.002,38.341
11540,3.993,0.000,2.318,0.326,9.194,0.962,0.001,38.022
11557,4.011,0.000,2.318,0.326,9.194,0.962,0.001,37.451
11574,4.021,0.000,2.318,0.326,9.194,0.962,0.001,36.677
11591,4.028,0.000,2.318,0.326,9.194,0.962,0.000,35.935
11608,4.033,0.000,2.318,0.326,9.194,0.962,0.000,35.415
11625,4.037,0.000,2.318,0.326,9.194,0.962,0.000,34.665
11642,4.040,0.000,2.318,0.326,9.194,0.962,0.000,34.236
11659,4.043,0.000,2.318,0.326,9.194,0.962,0.000,33.583
11676,4.045,0.000,2.318,0.326,9.194,0.962,0.000,33.025
11693,4.047,0.000,2.318,0.326,9.194,0.962,0.000,32.509
11710,4.049,0.000,2.318,0.326,9.194,0.962,0.000,32.086
11727,4.051,0.000,2.318,0.326,9.194,0.962,0.000,31.714
11744,4.052,0.000,2.318,0.326,9.194,0.962,0.000,31.198
11761,4.053,0.000,2.318,0.326,9.194,0.962,0.000,30.862
11778,4.054,0.000,2.318,0.326,9.194,0.962,0.000,30.565
11795,4.055,0.000,2.318,0.326,9.194,0.962,0.000,30.220
11812,4.055,0.000,2.318,0.326,9.194,0.962,0.000,29.959
11829,4.056,0.000,2.318,0.326,9.194,0.962,0.000,29.630
11846,4.056,0.000,2.318,0.326,9.194,0.962,0.000,29.297
11863,4.056,0.000,2.318,0.326,9.194,0.962,0.000,29.122
11880,4.057,0.000,2.318,0.326,9.194,0.962,0.000,28.820
11897,4.057,0.000,2.318,0.326,9.194,0.962,0.000,28.562
11914,4.057,0.000,2.318,0.326,9.194,0.962,0.000,28.369
11931,4.057,0.000,2.318,0.326,9.194,0.962,0.000,28.190
11948,4.057,0.000,2.318,0.326,9.194,0.962,0.000,27.951
11965,4.057,0.000,2.318,0.326,9.194,0.962,0.000,27.789
11982,4.057,0.000,2.318,0.326,9.194,0.962,0.000,27.630
11999,4.058,0.000,2.318,0.326,9.194,0.962,0.000,27.507
12016,4.058,0.000,2.318,0.326,9.194,0.962,0.000,27.318
12033,4.058,0.000,2.318,0.326,9.194,0.962,0.000,27.200
12050,4.058,0.000,2.318,0.326,9.194,0.962,0.000,27.091
12067,4.058,0.000,2.318,0.326,9.194,0.962,0.000,26.899
12084,4.058,0.000,2.318,0.326,9.194,0.962,0.000,26.849
12101,4.058,0.000,2.318,0.326,9.194,0.962,0.000,26.695
12118,4.058,0.000,2.318,0.326,9.194,0.962,0.000,26.587
12135,4.058,0.000,2.318,0.326,9.194,0.962,0.000,26.528
12152,4.058,0.000,2.318,0.326,9.194,0.962,0.000,26.381
12169,4.058,0.000,2.318,0.326,9.194,0.962,0.000,26.315
12186,4.058,0.000,2.318,0.326,9.194,0.962,0.000,26.206
12203,4.058,0.000,2.318,0.326,9.194,0.962,0.000,26.105
12220,4.058,0.000,2.318,0.326,9.194,0.962,0.000,26.019
12237,4.058,0.000,2.318,0.326,9.194,0.962,0.000,25.982
12254,4.058,0.000,2.318,0.326,9.194,0.962,0.000,25.905
12271,4.058,0.000,2.318,0.326,9.194,0.962,0.000,25.821
12288,4.058,0.000,2.318,0.326,9.194,0.962,0.000,25.799
12305,4.058,0.000,2.318,0.326,9.194,0.962,0.000,25.706
12322,4.058,0.000,2.318,0.326,9.194,0.962,0.000,25.670
12339,4.058,0.000,2.318,0.326,9.194,0.962,0.000,25.649
12356,4.058,0.000,2.318,0.326,9.194,0.962,0.000,25.606
12373,4.058,0.000,2.318,0.326,9.194,0.962,0.000,25.535
12390,4.058,0.000,2.318,0.326,9.194,0.962,0.000,25.511
12407,4.058,0.000,2.318,0.326,9.194,0.962,0.000,25.464
12424,4.058,0.000,2.318,0.326,9.194,0.962,0.000,25.384
12441,4.058,0.000,2.318,0.326,9.194,0.962,0.000,25.330
12458,4.058,0.000,2.318,0.326,9.194,0.962,0.000,25.332
12475,4.058,0.000,2.318,0.326,9.194,0.962,0.000,25.308
12492,4.058,0.000,2.318,0.326,9.194,0.962,0.000,25.259
12509,4.058,0.000,2.318,0.326,9.194,0.962,0.000,25.204
12526,4.058,0.000,2.318,0.326,9.194,0.962,0.000,25.134
12543,4.059,0.000,2.318,0.326,9.194,0.962,0.000,25.153
12560,4.059,0.000,2.318,0.326,9.194,0.962,0.000,25.068
12577,4.059,0.000,2.318,0.326,9.194,0.962,0.000,25.083
12594,4.059,0.000,2.318,0.326,9.194,0.962,0.000,25.062
12611,4.059,0.000,2.318,0.326,9.194,0.962,0.000,25.025
12628,4.059,0.000,2.318,0.326,9.194,0.962,0.000,25.016
12645,4.059,0.000,2.318,0.326,9.194,0.962,0.000,24.959
12662,4.059,0.000,2.318,0.326,9.194,0.962,0.000,24.938
12679,4.059,0.000,2.318,0.326,9.194,0.962,0.000,24.955
12696,4.059,0.000,2.318,0.326,9.194,0.962,0.000,24.917
12713,4.059,0.000,2.318,0.326,9.194,0.962,0.000,24.912
12730,4.059,0.000,2.318,0.326,9.194,0.962,0.000,24.869
12747,4.059,0.000,2.318,0.326,9.194,0.962,0.000,24.827
12764,4.059,0.000,2.318,0.326,9.194,0.962,0.000,24.860
12781,4.059,0.000,2.318,0.326,9.194,0.962,0.000,24.889
12798,4.059,0.000,2.318,0.326,9.194,0.962,0.000,24.866
12815,4.059,0.000,2.318,0.326,9.194,0.962,0.000,24.834
12832,4.059,0.000,2.318,0.326,9.194,0.962,0.000,24.820
12849,4.059,0.000,2.318,0.326,9.194,0.962,0.000,24.815
12866,4.059,0.000,2.318,0.326,9.194,0.962,0.000,24.756
12883,4.059,0.000,2.318,0.326,9.194,0.962,0.000,24.741
12900,4.059,0.000,2.318,0.326,9.194,0.962,0.000,24.754
12917,4.059,0.000,2.318,0.326,9.194,0.962,0.000,24.720
12934,4.059,0.000,2.318,0.326,9.194,0.962,0.000,24.750
12951,4.059,0.000,2.318,0.326,9.194,0.962,0.000,24.666
12968,4.059,0.000,2.318,0.326,9.194,0.962,0.000,24.708
12985,4.059,0.000,2.318,0.326,9.194,0.962,0.000,24.671
13002,4.059,0.000,2.318,0.326,9.194,0.962,0.000,24.681
13019,4.059,0.000,2.318,0.326,9.194,0.962,0.000,24.688
13036,4.059,0.000,2.318,0.326,9.194,0.962,0.000,24.714
13053,4.059,0.000,2.318,0.326,9.194,0.962,0.000,24.632
13070,4.059,0.000,2.318,0.326,9.194,0.962,0.000,24.637
13087,4.059,0.000,2.318,0.326,9.194,0.962,0.000,24.660
13104,4.059,0.000,2.318,0.326,9.194,0.962,0.000,24.663
13121,4.059,0.000,2.318,0.326,9.194,0.962,0.000,24.656
13138,4.059,0.000,2.318,0.326,9.194,0.962,0.000,24.625
13155,4.059,0.000,2.318,0.326,9.194,0.962,0.000,24.621
13172,4.059,0.000,2.318,0.326,9.194,0.962,0.000,24.648
13189,4.059,0.000,2.318,0.326,9.194,0.962,0.000,24.621
13206,4.059,0.000,2.318,0.326,9.194,0.962,0.000,24.567
13223,4.059,0.000,2.318,0.326,9.194,0.962,0.000,24.608
13240,4.059,0.000,2.318,0.326,9.194,0.962,0.000,24.586
13257,4.059,0.000,2.318,0.326,9.194,0.962,0.000,24.586
13274,4.059,0.000,2.318,0.326,9.194,0.962,0.000,24.559
13291,4.059,0.000,2.318,0.326,9.194,0.962,0.000,24.586
13308,4.059,0.000,2.318,0.326,9.194,0.962,0.000,24.569
13325,4.059,0.000,2.318,0.326,9.194,0.962,0.000,24.570
13342,4.059,0.000,2.318,0.326,9.194,0.962,0.000,24.582
13359,4.059,0.000,2.318,0.326,9.194,0.962,0.000,24.533
13376,4.059,0.000,2.318,0.326,9.194,0.962,0.000,24.568
13393,4.059,0.000,2.318,0.326,9.194,0.962,0.000,24.579
13410,4.059,0.000,2.318,0.326,9.194,0.962,0.000,24.586
13427,4.059,0.000,2.318,0.326,9.194,0.962,0.000,24.542
13444,4.059,0.000,2.318,0.326,9.194,0.962,0.000,24.575
13461,4.059,0.000,2.318,0.326,9.194,0.962,0.000,24.526
13478,4.059,0.000,2.318,0.326,9.194,0.962,0.000,24.578
13495,4.059,0.000,2.318,0.326,9.194,0.962,0.000,24.526
13512,4.059,0.000,2.318,0.326,9.194,0.962,0.000,24.501
13529,4.059,0.000,2.318,0.326,9.194,0.962,0.000,24.548
13546,4.059,0.000,2.318,0.326,9.194,0.962,0.000,24.536
13563,4.059,0.000,2.318,0.326,9.194,0.962,0.000,24.534
13580,4.059,0.000,2.318,0.326,9.194,0.962,0.000,24.551
13597,4.059,0.000,2.318,0.326,9.194,0.962,0.000,24.526
13614,4.059,0.000,2.318,0.326,9.194,0.962,0.000,24.519
13631,4.059,0.000,2.318,0.326,9.194,0.962,0.000,24.553
13648,4.059,0.000,2.318,0.326,9.194,0.962,0.000,24.537
13665,4.059,0.000,2.318,0.326,9.194,0.962,0.000,24.529
13682,4.059,0.000,2.318,0.326,9.194,0.962,0.000,24.516
13699,4.059,0.000,2.318,0.326,9.194,0.962,0.000,24.526
13716,4.059,0.000,2.318,0.326,9.194,0.962,0.000,24.516
13733,4.059,0.000,2.318,0.326,9.194,0.962,0.000,24.514
13750,4.059,0.000,2.318,0.326,9.194,0.962,0.000,24.517
13767,4.059,0.000,2.318,0.326,9.194,0.962,0.000,24.499
13784,4.059,0.000,2.318,0.326,9.194,0.962,0.000,24.494
13801,4.059,0.000,2.318,0.326,9.194,0.962,0.000,24.516
13818,4.059,0.000,2.318,0.326,9.194,0.962,0.000,24.536
13835,4.059,0.000,2.318,0.326,9.194,0.962,0.000,24.551
13852,4.059,0.000,2.318,0.326,9.194,0.962,0.000,24.538
13869,4.059,0.000,2.318,0.326,9.194,0.962,0.000,24.530
13886,4.059,0.000,2.318,0.326,9.194,0.962,0.000,24.499
13903,4.059,0.000,2.318,0.326,9.194,0.962,0.000,24.452
13920,4.059,0.000,2.318,0.326,9.194,0.962,0.000,24.520
13937,4.059,0.000,2.318,0.326,9.194,0.962,0.000,24.477
13954,4.059,0.000,2.318,0.326,9.194,0.962,0.000,24.489
13971,4.059,0.000,2.318,0.326,9.194,0.962,0.000,24.506
13988,4.059,0.000,2.318,0.326,9.194,0.962,0.000,24.500
14005,4.059,0.000,2.318,0.326,9.194,0.962,0.000,24.474
14022,4.059,0.000,2.318,0.326,9.194,0.962,0.000,24.473
14039,4.059,0.000,2.318,0.326,9.194,0.962,0.000,24.488
14056,4.059,0.000,2.318,0.326,9.194,0.962,0.000,24.491
14073,4.059,0.000,2.318,0.326,9.194,0.962,0.000,24.476
14090,4.059,0.000,2.318,0.326,9.194,0.962,0.000,24.514
14107,4.059,0.000,2.318,0.326,9.194,0.962,0.000,24.475
14124,4.059,0.000,2.318,0.326,9.194,0.962,0.000,24.502
14141,4.059,0.000,2.318,0.326,9.194,0.962,0.000,24.497
14158,4.059,0.000,2.318,0.326,9.194,0.962,0.000,24.456
14175,4.059,0.000,2.318,0.326,9.194,0.962,0.000,24.523
14192,4.059,0.000,2.318,0.326,9.194,0.962,0.000,24.483
14209,4.059,0.000,2.318,0.326,9.194,0.962,0.000,24.516
14226,4.059,0.000,2.318,0.326,9.194,0.962,0.000,24.494
14243,4.059,0.000,2.318,0.326,9.194,0.962,0.000,24.487
14260,4.059,0.000,2.318,0.326,9.194,0.962,0.000,24.487
14277,4.059,0.000,2.318,0.326,9.194,0.962,0.000,24.455
14294,4.059,0.000,2.318,0.326,9.194,0.962,0.000,24.508
14311,4.059,0.000,2.318,0.326,9.194,0.962,0.000,24.463
14328,4.059,0.000,2.318,0.326,9.194,0.962,0.000,24.519
14345,4.059,0.000,2.318,0.326,9.194,0.962,0.000,24.534
14362,4.059,0.000,2.318,0.326,9.194,0.962,0.000,24.530
14379,4.059,0.000,2.318,0.326,9.194,0.962,0.000,24.493
14396,4.059,0.000,2.318,0.326,9.194,0.962,0.000,24.451
14413,4.059,0.000,2.318,0.326,9.194,0.962,0.000,24.491
14430,4.059,0.000,2.318,0.326,9.194,0.962,0.000,24.507
14447,4.059,0.000,2.318,0.326,9.194,0.962,0.000,24.551
14464,4.059,0.000,2.318,0.326,9.194,0.962,0.000,24.524
14481,4.059,0.000,2.318,0.326,9.194,0.962,0.000,24.563
14498,4.059,0.000,2.318,0.326,9.194,0.962,0.000,24.660
14515,4.059,0.000,2.318,0.326,9.194,0.962,0.000,24.629
14532,4.059,0.000,2.318,0.326,9.194,0.962,0.000,24.601
14549,4.059,0.000,2.318,0.326,9.194,0.962,0.000,24.565
14566,4.059,0.000,2.318,0.326,9.194,0.962,0.000,24.516
14583,4.059,0.000,2.318,0.326,9.194,0.962,0.000,24.515
14600,4.059,0.000,2.318,0.326,9.194,0.962,0.000,24.499
14617,4.059,0.000,2.318,0.326,9.194,0.962,0.000,24.442
14634,4.059,0.000,2.318,0.326,9.194,0.962,0.000,24.457
14651,4.059,0.000,2.318,0.326,9.194,0.962,0.000,24.421
14668,4.059,0.000,2.318,0.326,9.194,0.962,0.000,24.459
14685,4.059,0.000,2.318,0.326,9.194,0.962,0.000,24.513
14702,4.059,0.000,2.318,0.326,9.194,0.962,0.000,24.609
14719,4.059,0.000,2.318,0.326,9.194,0.962,0.000,24.687
14736,4.059,0.000,2.318,0.326,9.194,0.962,0.000,24.827
14753,4.059,0.000,2.318,0.326,9.194,0.962,0.000,24.940
14770,4.059,0.000,2.318,0.326,9.194,0.962,0.000,24.919
14787,4.059,0.000,2.318,0.326,9.194,0.962,0.000,24.879
14804,4.060,0.000,2.318,0.326,9.194,0.962,0.000,24.877
14821,4.059,0.000,2.318,0.326,9.194,0.962,0.000,24.881
14838,4.059,0.000,2.318,0.326,9.194,0.962,0.000,24.901
14855,4.059,0.000,2.318,0.326,9.194,0.962,0.000,24.857
14872,4.059,0.000,2.318,0.326,9.194,0.962,0.000,24.842
14889,4.059,0.000,2.318,0.326,9.194,0.962,0.000,24.805
14906,4.059,0.000,2.318,0.326,9.194,0.962,0.000,24.797
14923,4.059,0.000,2.318,0.326,9.194,0.962,0.000,24.797
14940,4.059,0.000,2.318,0.326,9.194,0.962,0.000,24.770
14957,4.060,0.000,2.318,0.326,9.194,0.962,0.000,24.713
14974,4.059,0.000,2.318,0.326,9.194,0.962,0.000,24.665
14991,4.059,0.000,2.318,0.326,9.194,0.962,0.000,24.633
15008,4.059,0.000,2.318,0.326,9.194,0.962,0.000,24.609
15025,4.059,0.000,2.318,0.326,9.194,0.962,0.000,24.608
15042,4.059,0.000,2.318,0.326,9.194,0.962,0.000,24.623
15059,4.059,0.000,2.318,0.326,9.194,0.962,0.000,24.619
15076,4.059,0.000,2.318,0.326,9.194,0.962,0.000,24.586
15089,4.059,0.000,2.318,0.326,9.194,0.962,0.000,24.578