File: data/T25/5C/2.csv
time_s,voltage_v,current_a,chargecapacity_ah,dischargecapacity_ah,charge_energy_wh,discharge_energy_wh,voltagedot_v_per_s,temp_degc
1,3.106,0.000,0.000,0.000,0.000,0.000,0.000,23.590
21,3.106,0.000,0.000,0.000,0.000,0.000,0.000,23.630
41,3.106,0.000,0.000,0.000,0.000,0.000,0.000,23.655
60,3.106,0.000,0.000,0.000,0.000,0.000,0.000,23.697
80,3.406,1.625,0.009,0.000,0.031,0.000,-0.007,23.694
100,3.458,1.625,0.018,0.000,0.061,0.000,-0.001,23.769
120,3.490,1.625,0.027,0.000,0.093,0.000,0.009,23.889
140,3.518,1.625,0.036,0.000,0.125,0.000,-0.004,23.979
160,3.541,1.625,0.045,0.000,0.156,0.000,0.000,24.115
180,3.564,1.625,0.054,0.000,0.189,0.000,-0.001,24.165
200,3.579,1.625,0.063,0.000,0.221,0.000,-0.010,24.269
220,3.592,1.625,0.072,0.000,0.253,0.000,-0.007,24.327
240,3.605,1.625,0.081,0.000,0.286,0.000,0.001,24.473
260,3.601,1.625,0.090,0.000,0.318,0.000,-0.008,24.552
280,3.600,1.625,0.099,0.000,0.351,0.000,-0.005,24.663
300,3.610,1.625,0.108,0.000,0.383,0.000,0.001,24.797
320,3.615,1.625,0.117,0.000,0.416,0.000,0.003,24.931
340,3.616,1.625,0.126,0.000,0.449,0.000,-0.007,24.975
360,3.620,1.625,0.135,0.000,0.481,0.000,-0.004,25.076
380,3.623,1.625,0.144,0.000,0.514,0.000,0.004,25.241
400,3.623,1.625,0.153,0.000,0.547,0.000,-0.003,25.334
420,3.624,1.625,0.163,0.000,0.579,0.000,0.006,25.320
440,3.622,1.625,0.172,0.000,0.612,0.000,-0.007,25.471
460,3.623,1.625,0.181,0.000,0.645,0.000,0.001,25.548
480,3.627,1.625,0.190,0.000,0.678,0.000,-0.004,25.656
500,3.630,1.625,0.199,0.000,0.710,0.000,-0.006,25.693
520,3.628,1.625,0.208,0.000,0.743,0.000,-0.006,25.723
540,3.634,1.625,0.217,0.000,0.776,0.000,0.000,25.816
560,3.632,1.625,0.226,0.000,0.809,0.000,0.006,25.849
580,3.634,1.625,0.235,0.000,0.841,0.000,-0.001,25.946
600,3.633,1.625,0.244,0.000,0.874,0.000,0.001,25.954
620,3.638,1.625,0.253,0.000,0.907,0.000,0.008,25.982
640,3.640,1.625,0.262,0.000,0.940,0.000,-0.005,26.023
660,3.634,1.625,0.271,0.000,0.973,0.000,-0.006,26.105
680,3.640,1.625,0.280,0.000,1.006,0.000,0.001,26.101
700,3.645,1.625,0.289,0.000,1.038,0.000,0.000,26.211
720,3.645,1.625,0.298,0.000,1.071,0.000,0.001,26.197
740,3.647,1.625,0.307,0.000,1.104,0.000,-0.003,26.224
760,3.645,1.625,0.316,0.000,1.137,0.000,-0.001,26.265
780,3.644,1.625,0.325,0.000,1.170,0.000,-0.005,26.299
800,3.645,1.625,0.334,0.000,1.203,0.000,-0.006,26.342
820,3.645,1.625,0.343,0.000,1.236,0.000,-0.002,26.303
840,3.646,1.625,0.352,0.000,1.269,0.000,-0.003,26.372
860,3.650,1.625,0.361,0.000,1.302,0.000,-0.007,26.401
880,3.653,1.625,0.370,0.000,1.335,0.000,-0.005,26.445
900,3.660,1.625,0.379,0.000,1.368,0.000,0.001,26.423
920,3.658,1.625,0.388,0.000,1.401,0.000,0.007,26.397
940,3.656,1.625,0.397,0.000,1.434,0.000,0.000,26.451
960,3.656,1.625,0.406,0.000,1.467,0.000,-0.002,26.471
980,3.665,1.625,0.415,0.000,1.500,0.000,-0.002,26.484
1000,3.667,1.625,0.424,0.000,1.533,0.000,-0.004,26.465
1020,3.667,1.625,0.433,0.000,1.566,0.000,0.000,26.500
1040,3.670,1.625,0.442,0.000,1.599,0.000,0.005,26.448
1060,3.669,1.625,0.451,0.000,1.632,0.000,0.001,26.478
1080,3.670,1.625,0.460,0.000,1.666,0.000,-0.002,26.526
1100,3.674,1.625,0.470,0.000,1.699,0.000,0.002,26.410
1120,3.670,1.625,0.479,0.000,1.732,0.000,0.001,26.488
1140,3.678,1.625,0.488,0.000,1.765,0.000,-0.005,26.516
1160,3.680,1.625,0.497,0.000,1.798,0.000,-0.001,26.495
1180,3.681,1.625,0.506,0.000,1.831,0.000,0.000,26.517
1200,3.680,1.625,0.515,0.000,1.865,0.000,0.001,26.448
1220,3.682,1.625,0.524,0.000,1.898,0.000,0.001,26.472
1240,3.687,1.625,0.533,0.000,1.931,0.000,0.001,26.474
1260,3.685,1.625,0.542,0.000,1.965,0.000,0.003,26.478
1280,3.688,1.625,0.551,0.000,1.998,0.000,-0.001,26.504
1300,3.687,1.625,0.560,0.000,2.031,0.000,-0.001,26.516
1320,3.690,1.625,0.569,0.000,2.064,0.000,0.000,26.501
1340,3.696,1.625,0.578,0.000,2.098,0.000,0.001,26.429
1360,3.694,1.625,0.587,0.000,2.131,0.000,-0.003,26.413
1380,3.693,1.625,0.596,0.000,2.164,0.000,0.001,26.444
1400,3.692,1.625,0.605,0.000,2.198,0.000,-0.003,26.441
1420,3.696,1.625,0.614,0.000,2.231,0.000,-0.001,26.439
1440,3.695,1.625,0.623,0.000,2.265,0.000,-0.002,26.470
1460,3.700,1.625,0.632,0.000,2.298,0.000,0.002,26.420
1480,3.701,1.625,0.641,0.000,2.331,0.000,0.000,26.471
1500,3.700,1.625,0.650,0.000,2.365,0.000,0.000,26.488
1520,3.705,1.625,0.659,0.000,2.398,0.000,0.002,26.452
1540,3.707,1.625,0.668,0.000,2.432,0.000,0.000,26.477
1560,3.706,1.625,0.677,0.000,2.465,0.000,-0.003,26.462
1580,3.705,1.625,0.686,0.000,2.499,0.000,0.002,26.479
1600,3.712,1.625,0.695,0.000,2.532,0.000,0.003,26.476
1620,3.711,1.625,0.704,0.000,2.566,0.000,0.002,26.478
1640,3.709,1.625,0.713,0.000,2.599,0.000,0.000,26.458
1660,3.713,1.625,0.722,0.000,2.633,0.000,0.000,26.464
1680,3.710,1.625,0.731,0.000,2.666,0.000,-0.003,26.451
1700,3.715,1.625,0.740,0.000,2.700,0.000,-0.006,26.498
1720,3.712,1.625,0.749,0.000,2.733,0.000,-0.001,26.449
1740,3.716,1.625,0.758,0.000,2.767,0.000,-0.004,26.493
1760,3.718,1.625,0.767,0.000,2.800,0.000,0.000,26.484
1780,3.717,1.625,0.777,0.000,2.834,0.000,-0.001,26.491
1800,3.720,1.625,0.786,0.000,2.867,0.000,-0.004,26.483
1820,3.727,1.625,0.795,0.000,2.901,0.000,0.002,26.475
1840,3.724,1.625,0.804,0.000,2.935,0.000,-0.002,26.525
1860,3.726,1.625,0.813,0.000,2.968,0.000,0.000,26.537
1880,3.726,1.625,0.822,0.000,3.002,0.000,-0.002,26.492
1900,3.726,1.625,0.831,0.000,3.036,0.000,0.000,26.488
1920,3.730,1.625,0.840,0.000,3.069,0.000,-0.001,26.529
1940,3.733,1.625,0.849,0.000,3.103,0.000,-0.002,26.474
1960,3.732,1.625,0.858,0.000,3.137,0.000,0.001,26.526
1980,3.735,1.625,0.867,0.000,3.170,0.000,0.000,26.487
2000,3.736,1.625,0.876,0.000,3.204,0.000,0.000,26.501
2020,3.738,1.625,0.885,0.000,3.238,0.000,0.000,26.501
2040,3.740,1.625,0.894,0.000,3.272,0.000,0.002,26.563
2060,3.737,1.625,0.903,0.000,3.305,0.000,0.000,26.470
2080,3.742,1.625,0.912,0.000,3.339,0.000,0.002,26.517
2100,3.738,1.625,0.921,0.000,3.373,0.000,-0.003,26.498
2120,3.744,1.625,0.930,0.000,3.407,0.000,0.000,26.528
2140,3.743,1.625,0.939,0.000,3.440,0.000,0.000,26.590
2160,3.743,1.625,0.948,0.000,3.474,0.000,-0.001,26.548
2180,3.747,1.625,0.957,0.000,3.508,0.000,-0.001,26.549
2200,3.747,1.625,0.966,0.000,3.542,0.000,0.000,26.522
2220,3.749,1.625,0.975,0.000,3.576,0.000,-0.001,26.542
2240,3.750,1.625,0.984,0.000,3.610,0.000,0.000,26.527
2260,3.752,1.625,0.993,0.000,3.643,0.000,-0.002,26.473
2280,3.753,1.625,1.002,0.000,3.677,0.000,-0.001,26.547
2300,3.753,1.625,1.011,0.000,3.711,0.000,-0.002,26.521
2320,3.755,1.625,1.020,0.000,3.745,0.000,0.000,26.563
2340,3.756,1.625,1.029,0.000,3.779,0.000,0.000,26.620
2360,3.758,1.625,1.038,0.000,3.813,0.000,0.000,26.551
2380,3.758,1.625,1.047,0.000,3.847,0.000,0.000,26.548
2400,3.759,1.625,1.056,0.000,3.881,0.000,0.000,26.555
2420,3.761,1.625,1.065,0.000,3.915,0.000,0.000,26.599
2440,3.762,1.625,1.074,0.000,3.949,0.000,0.000,26.599
2460,3.763,1.625,1.083,0.000,3.983,0.000,0.000,26.575
2480,3.764,1.625,1.093,0.000,4.017,0.000,0.000,26.602
2500,3.766,1.625,1.102,0.000,4.051,0.000,0.000,26.609
2520,3.767,1.625,1.111,0.000,4.085,0.000,0.000,26.623
2540,3.769,1.625,1.120,0.000,4.119,0.000,0.000,26.624
2560,3.771,1.625,1.129,0.000,4.153,0.000,0.000,26.604
2580,3.773,1.625,1.138,0.000,4.187,0.000,0.000,26.586
2600,3.775,1.625,1.147,0.000,4.221,0.000,0.000,26.595
2620,3.777,1.625,1.156,0.000,4.255,0.000,0.000,26.592
2640,3.779,1.625,1.165,0.000,4.289,0.000,0.001,26.617
2660,3.781,1.625,1.174,0.000,4.323,0.000,0.000,26.585
2680,3.783,1.625,1.183,0.000,4.357,0.000,0.000,26.625
2700,3.785,1.625,1.192,0.000,4.392,0.000,0.001,26.611
2720,3.787,1.625,1.201,0.000,4.426,0.000,0.000,26.606
2740,3.789,1.625,1.210,0.000,4.460,0.000,0.001,26.597
2760,3.790,1.625,1.219,0.000,4.494,0.000,0.000,26.603
2780,3.792,1.625,1.228,0.000,4.528,0.000,0.000,26.646
2800,3.794,1.625,1.237,0.000,4.563,0.000,0.000,26.613
2820,3.798,1.625,1.246,0.000,4.597,0.000,0.000,26.606
2840,3.800,1.625,1.255,0.000,4.631,0.000,-0.001,26.597
2860,3.803,1.625,1.264,0.000,4.666,0.000,-0.001,26.610
2880,3.805,1.625,1.273,0.000,4.700,0.000,0.000,26.610
2900,3.809,1.625,1.282,0.000,4.734,0.000,0.000,26.592
2920,3.812,1.625,1.291,0.000,4.769,0.000,-0.001,26.639
2940,3.813,1.625,1.300,0.000,4.803,0.000,0.000,26.677
2960,3.816,1.625,1.309,0.000,4.838,0.000,0.000,26.652
2980,3.818,1.625,1.318,0.000,4.872,0.000,0.000,26.659
3000,3.820,1.625,1.327,0.000,4.906,0.000,0.000,26.657
3020,3.821,1.625,1.336,0.000,4.941,0.000,0.001,26.571
3040,3.823,1.625,1.345,0.000,4.975,0.000,0.000,26.681
3060,3.825,1.625,1.354,0.000,5.010,0.000,0.000,26.668
3080,3.828,1.625,1.363,0.000,5.045,0.000,-0.001,26.684
3100,3.830,1.625,1.372,0.000,5.079,0.000,0.000,26.666
3120,3.832,1.625,1.381,0.000,5.114,0.000,-0.001,26.666
3140,3.835,1.625,1.390,0.000,5.148,0.000,0.000,26.677
3160,3.838,1.625,1.400,0.000,5.183,0.000,-0.001,26.715
3180,3.841,1.625,1.409,0.000,5.218,0.000,0.002,26.669
3200,3.842,1.625,1.418,0.000,5.252,0.000,-0.001,26.660
3220,3.845,1.625,1.427,0.000,5.287,0.000,0.001,26.708
3240,3.848,1.625,1.436,0.000,5.322,0.000,0.000,26.722
3260,3.849,1.625,1.445,0.000,5.357,0.000,0.000,26.690
3280,3.852,1.625,1.454,0.000,5.391,0.000,0.001,26.703
3300,3.853,1.625,1.463,0.000,5.426,0.000,-0.001,26.622
3320,3.855,1.625,1.472,0.000,5.461,0.000,0.000,26.741
3340,3.857,1.625,1.481,0.000,5.496,0.000,0.000,26.738
3360,3.858,1.625,1.490,0.000,5.530,0.000,0.000,26.631
3380,3.861,1.625,1.499,0.000,5.565,0.000,0.001,26.703
3400,3.863,1.625,1.508,0.000,5.600,0.000,0.000,26.698
3420,3.865,1.625,1.517,0.000,5.635,0.000,0.000,26.724
3440,3.868,1.625,1.526,0.000,5.670,0.000,0.001,26.669
3460,3.870,1.625,1.535,0.000,5.705,0.000,-0.001,26.668
3480,3.871,1.625,1.544,0.000,5.740,0.000,0.000,26.672
3500,3.874,1.625,1.553,0.000,5.775,0.000,0.001,26.720
3520,3.876,1.625,1.562,0.000,5.810,0.000,-0.001,26.671
3540,3.878,1.625,1.571,0.000,5.845,0.000,0.001,26.687
3560,3.880,1.625,1.580,0.000,5.880,0.000,0.001,26.733
3580,3.882,1.625,1.589,0.000,5.915,0.000,-0.001,26.747
3600,3.884,1.625,1.598,0.000,5.950,0.000,0.000,26.704
3620,3.886,1.625,1.607,0.000,5.985,0.000,0.000,26.718
3640,3.888,1.625,1.616,0.000,6.020,0.000,-0.001,26.719
3660,3.891,1.625,1.625,0.000,6.055,0.000,-0.001,26.754
3680,3.893,1.625,1.634,0.000,6.090,0.000,0.000,26.736
3700,3.895,1.625,1.643,0.000,6.126,0.000,0.000,26.710
3720,3.899,1.625,1.652,0.000,6.161,0.000,0.001,26.717
3740,3.900,1.625,1.661,0.000,6.196,0.000,-0.001,26.728
3760,3.903,1.625,1.670,0.000,6.231,0.000,0.001,26.695
3780,3.885,1.625,1.679,0.000,6.266,0.000,0.000,26.707
3800,3.887,1.625,1.688,0.000,6.301,0.000,0.000,26.774
3820,3.887,1.625,1.697,0.000,6.336,0.000,0.000,26.797
3840,3.889,1.625,1.707,0.000,6.372,0.000,0.000,26.827
3860,3.891,1.625,1.716,0.000,6.407,0.000,0.000,26.822
3880,3.893,1.625,1.725,0.000,6.442,0.000,0.000,26.828
3900,3.895,1.625,1.734,0.000,6.477,0.000,0.000,26.791
3920,3.897,1.625,1.743,0.000,6.512,0.000,0.000,26.696
3940,3.899,1.625,1.752,0.000,6.547,0.000,0.000,26.732
3960,3.900,1.625,1.761,0.000,6.583,0.000,0.000,26.710
3980,3.902,1.625,1.770,0.000,6.618,0.000,0.000,26.730
4000,3.905,1.625,1.779,0.000,6.653,0.000,0.000,26.904
4020,3.907,1.625,1.788,0.000,6.688,0.000,0.000,26.873
4040,3.912,1.625,1.797,0.000,6.724,0.000,-0.001,27.015
4060,3.916,1.625,1.806,0.000,6.759,0.000,0.000,27.172
4080,3.919,1.625,1.815,0.000,6.794,0.000,-0.001,27.364
4100,3.922,1.625,1.824,0.000,6.830,0.000,-0.002,27.418
4120,3.929,1.625,1.833,0.000,6.865,0.000,0.001,27.372
4140,3.948,1.625,1.842,0.000,6.901,0.000,0.000,27.315
4160,3.954,1.625,1.851,0.000,6.936,0.000,0.001,27.289
4180,3.951,1.625,1.860,0.000,6.972,0.000,0.000,27.259
4200,3.942,1.625,1.869,0.000,7.008,0.000,-0.002,27.153
4220,3.930,1.625,1.878,0.000,7.043,0.000,0.000,27.077
4240,3.929,1.625,1.887,0.000,7.079,0.000,0.000,27.114
4260,3.931,1.625,1.896,0.000,7.114,0.000,0.000,27.089
4280,3.932,1.625,1.905,0.000,7.150,0.000,0.000,27.016
4300,3.935,1.625,1.914,0.000,7.185,0.000,0.000,27.045
4320,3.937,1.625,1.923,0.000,7.221,0.000,0.000,26.979
4340,3.940,1.625,1.932,0.000,7.256,0.000,0.000,26.975
4360,3.942,1.625,1.941,0.000,7.292,0.000,0.000,27.007
4380,3.944,1.625,1.950,0.000,7.328,0.000,0.000,27.016
4400,3.947,1.625,1.959,0.000,7.363,0.000,0.000,26.991
4420,3.949,1.625,1.968,0.000,7.399,0.000,0.000,26.980
4440,3.952,1.625,1.977,0.000,7.435,0.000,0.000,27.008
4460,3.955,1.625,1.986,0.000,7.470,0.000,0.000,27.014
4480,3.957,1.625,1.995,0.000,7.506,0.000,0.000,27.036
4500,3.960,1.625,2.004,0.000,7.542,0.000,0.000,26.992
4520,3.963,1.625,2.014,0.000,7.577,0.000,0.000,27.004
4540,3.965,1.625,2.023,0.000,7.613,0.000,0.000,26.998
4560,3.968,1.625,2.032,0.000,7.649,0.000,0.000,27.031
4580,3.970,1.625,2.041,0.000,7.685,0.000,0.000,27.017
4600,3.973,1.625,2.050,0.000,7.721,0.000,0.000,27.047
4620,3.976,1.625,2.059,0.000,7.757,0.000,0.000,27.073
4640,3.978,1.625,2.068,0.000,7.793,0.000,0.000,27.073
4660,3.981,1.625,2.077,0.000,7.828,0.000,0.000,27.065
4680,3.983,1.625,2.086,0.000,7.864,0.000,0.000,27.044
4700,3.986,1.625,2.095,0.000,7.900,0.000,0.000,27.107
4720,3.989,1.625,2.104,0.000,7.936,0.000,0.000,27.124
4740,3.991,1.625,2.113,0.000,7.972,0.000,0.000,27.067
4760,3.994,1.625,2.122,0.000,8.008,0.000,0.000,27.051
4780,3.996,1.625,2.131,0.000,8.045,0.000,0.000,27.097
4800,3.999,1.625,2.140,0.000,8.081,0.000,0.000,27.087
4820,4.002,1.625,2.149,0.000,8.117,0.000,0.000,27.069
4840,4.004,1.625,2.158,0.000,8.153,0.000,0.000,27.080
4860,4.007,1.625,2.167,0.000,8.189,0.000,0.000,27.132
4880,4.009,1.625,2.176,0.000,8.225,0.000,0.000,27.088
4900,4.012,1.625,2.185,0.000,8.261,0.000,0.000,27.088
4920,4.014,1.625,2.194,0.000,8.298,0.000,0.000,27.082
4940,4.017,1.625,2.203,0.000,8.334,0.000,0.000,27.111
4960,4.019,1.625,2.212,0.000,8.370,0.000,0.000,27.129
4980,4.022,1.625,2.221,0.000,8.407,0.000,0.000,27.084
5000,4.024,1.625,2.230,0.000,8.443,0.000,0.000,27.104
5020,4.027,1.625,2.239,0.000,8.479,0.000,0.000,27.159
5040,4.029,1.625,2.248,0.000,8.516,0.000,0.000,27.104
5060,4.032,1.625,2.257,0.000,8.552,0.000,0.000,27.132
5080,4.034,1.625,2.266,0.000,8.588,0.000,0.000,27.117
5100,4.037,1.625,2.275,0.000,8.625,0.000,0.000,27.176
5120,4.039,1.625,2.284,0.000,8.661,0.000,0.000,27.108
5140,4.042,1.625,2.293,0.000,8.698,0.000,0.000,27.096
5160,4.044,1.625,2.302,0.000,8.734,0.000,0.000,27.139
5180,4.047,1.625,2.311,0.000,8.771,0.000,0.000,27.132
5200,4.049,1.625,2.320,0.000,8.807,0.000,0.000,27.135
5220,4.052,1.625,2.330,0.000,8.844,0.000,0.000,27.138
5240,4.054,1.625,2.339,0.000,8.881,0.000,0.000,27.133
5260,4.057,1.625,2.348,0.000,8.917,0.000,0.000,27.129
5280,4.059,1.625,2.357,0.000,8.954,0.000,0.000,27.135
5300,4.062,1.625,2.366,0.000,8.990,0.000,0.000,27.187
5320,4.065,1.625,2.375,0.000,9.027,0.000,0.000,27.206
5340,4.067,1.625,2.384,0.000,9.064,0.000,0.000,27.126
5360,4.070,1.625,2.393,0.000,9.101,0.000,0.000,27.154
5380,4.072,1.625,2.402,0.000,9.137,0.000,0.000,27.141
5400,4.075,1.625,2.411,0.000,9.174,0.000,0.000,27.148
5420,4.077,1.625,2.420,0.000,9.211,0.000,0.000,27.135
5440,4.080,1.625,2.429,0.000,9.248,0.000,0.000,27.169
5460,4.083,1.625,2.438,0.000,9.285,0.000,0.000,27.166
5480,4.085,1.625,2.447,0.000,9.321,0.000,0.000,27.134
5500,4.088,1.625,2.456,0.000,9.358,0.000,0.000,27.179
5520,4.091,1.625,2.465,0.000,9.395,0.000,0.000,27.144
5540,4.094,1.625,2.474,0.000,9.432,0.000,0.000,27.152
5560,4.096,1.625,2.483,0.000,9.469,0.000,0.000,27.245
5580,4.099,1.625,2.492,0.000,9.506,0.000,0.000,27.190
5600,4.102,1.625,2.501,0.000,9.543,0.000,0.000,27.173
5620,4.105,1.625,2.510,0.000,9.580,0.000,0.000,27.208
5640,4.108,1.625,2.519,0.000,9.617,0.000,0.000,27.192
5660,4.111,1.625,2.528,0.000,9.654,0.000,0.000,27.217
5680,4.113,1.625,2.537,0.000,9.692,0.000,0.000,27.203
5700,4.116,1.625,2.546,0.000,9.729,0.000,0.000,27.158
5720,4.119,1.625,2.555,0.000,9.766,0.000,0.000,27.195
5740,4.122,1.625,2.564,0.000,9.803,0.000,0.000,27.164
5760,4.125,1.625,2.573,0.000,9.840,0.000,0.000,27.182
5780,4.128,1.625,2.582,0.000,9.878,0.000,0.000,27.215
5800,4.131,1.625,2.591,0.000,9.915,0.000,0.000,27.177
5820,4.135,1.625,2.600,0.000,9.952,0.000,0.000,27.215
5840,4.138,1.625,2.609,0.000,9.990,0.000,0.000,27.242
5860,4.141,1.625,2.618,0.000,10.027,0.000,0.000,27.229
5880,4.144,1.625,2.627,0.000,10.064,0.000,0.000,27.238
5900,4.147,1.625,2.637,0.000,10.102,0.000,0.000,27.243
5920,4.151,1.625,2.646,0.000,10.139,0.000,0.000,27.246
5940,4.154,1.625,2.655,0.000,10.177,0.000,0.000,27.203
5960,4.157,1.625,2.664,0.000,10.214,0.000,0.000,27.270
5980,4.161,1.625,2.673,0.000,10.252,0.000,0.000,27.252
6000,4.164,1.625,2.682,0.000,10.289,0.000,0.000,27.267
6020,4.167,1.625,2.691,0.000,10.327,0.000,0.000,27.283
6040,4.171,1.625,2.700,0.000,10.365,0.000,0.000,27.297
6060,4.174,1.625,2.709,0.000,10.402,0.000,0.000,27.260
6080,4.178,1.625,2.718,0.000,10.440,0.000,0.000,27.260
6100,4.181,1.625,2.727,0.000,10.478,0.000,0.000,27.254
6120,4.185,1.625,2.736,0.000,10.516,0.000,0.000,27.270
6140,4.188,1.625,2.745,0.000,10.553,0.000,0.000,27.297
6160,4.192,1.625,2.754,0.000,10.591,0.000,0.000,27.265
6180,4.195,1.625,2.763,0.000,10.629,0.000,0.000,27.277
6200,4.199,1.625,2.772,0.000,10.667,0.000,0.000,27.278
6220,4.200,1.594,2.781,0.000,10.704,0.000,0.000,27.287
6240,4.200,1.551,2.789,0.000,10.740,0.000,0.000,27.271
6260,4.200,1.517,2.798,0.000,10.776,0.000,0.000,27.322
6280,4.200,1.484,2.806,0.000,10.811,0.000,0.000,27.254
6300,4.200,1.453,2.814,0.000,10.845,0.000,0.000,27.241
6320,4.200,1.425,2.822,0.000,10.879,0.000,0.000,27.258
6340,4.200,1.397,2.830,0.000,10.912,0.000,0.000,27.268
6360,4.200,1.371,2.838,0.000,10.944,0.000,0.000,27.276
6380,4.200,1.346,2.846,0.000,10.976,0.000,0.000,27.213
6400,4.200,1.321,2.853,0.000,11.007,0.000,0.000,27.194
6420,4.200,1.296,2.860,0.000,11.038,0.000,0.000,27.117
6440,4.200,1.274,2.867,0.000,11.067,0.000,0.000,27.149
6460,4.200,1.250,2.874,0.000,11.097,0.000,0.000,27.113
6480,4.200,1.228,2.881,0.000,11.126,0.000,0.000,27.089
6500,4.200,1.206,2.888,0.000,11.154,0.000,0.000,27.065
6520,4.200,1.184,2.895,0.000,11.182,0.000,0.000,27.022
6540,4.200,1.164,2.901,0.000,11.209,0.000,0.000,27.025
6560,4.200,1.144,2.908,0.000,11.236,0.000,0.000,26.955
6580,4.200,1.124,2.914,0.000,11.263,0.000,0.000,26.967
6600,4.200,1.104,2.920,0.000,11.289,0.000,0.000,26.887
6620,4.200,1.086,2.926,0.000,11.314,0.000,0.000,26.927
6640,4.200,1.068,2.932,0.000,11.339,0.000,0.000,26.851
6660,4.200,1.050,2.938,0.000,11.364,0.000,0.000,26.810
6680,4.200,1.032,2.944,0.000,11.388,0.000,0.000,26.826
6700,4.200,1.015,2.949,0.000,11.412,0.000,0.000,26.768
6720,4.200,0.999,2.955,0.000,11.436,0.000,0.000,26.721
6740,4.200,0.977,2.961,0.000,11.459,0.000,0.000,26.724
6760,4.200,0.965,2.966,0.000,11.482,0.000,0.000,26.663
6780,4.200,0.951,2.971,0.000,11.504,0.000,0.000,26.701
6800,4.200,0.936,2.976,0.000,11.526,0.000,0.000,26.639
6820,4.200,0.922,2.982,0.000,11.548,0.000,0.000,26.576
6840,4.200,0.908,2.987,0.000,11.569,0.000,0.000,26.601
6860,4.200,0.893,2.992,0.000,11.590,0.000,0.000,26.585
6880,4.200,0.880,2.997,0.000,11.611,0.000,0.000,26.578
6900,4.200,0.867,3.002,0.000,11.631,0.000,0.000,26.494
6920,4.200,0.855,3.006,0.000,11.651,0.000,0.000,26.494
6940,4.200,0.842,3.011,0.000,11.671,0.000,0.000,26.455
6960,4.200,0.829,3.016,0.000,11.690,0.000,0.000,26.355
6980,4.200,0.817,3.020,0.000,11.710,0.000,0.000,26.363
7000,4.200,0.807,3.025,0.000,11.729,0.000,0.000,26.297
7020,4.200,0.796,3.029,0.000,11.747,0.000,0.000,26.319
7040,4.200,0.785,3.034,0.000,11.766,0.000,0.000,26.279
7060,4.200,0.773,3.038,0.000,11.784,0.000,0.000,26.263
7080,4.200,0.762,3.042,0.000,11.802,0.000,0.000,26.255
7100,4.200,0.752,3.046,0.000,11.819,0.000,0.000,26.191
7120,4.200,0.742,3.051,0.000,11.837,0.000,0.000,26.185
7140,4.200,0.732,3.055,0.000,11.854,0.000,0.000,26.219
7160,4.200,0.721,3.059,0.000,11.871,0.000,0.000,26.182
7180,4.200,0.712,3.063,0.000,11.888,0.000,0.000,26.126
7200,4.200,0.702,3.067,0.000,11.904,0.000,0.000,26.160
7220,4.200,0.693,3.070,0.000,11.921,0.000,0.000,26.084
7240,4.200,0.685,3.074,0.000,11.937,0.000,0.000,26.040
7260,4.200,0.675,3.078,0.000,11.952,0.000,0.000,26.050
7280,4.200,0.666,3.082,0.000,11.968,0.000,0.000,25.988
7300,4.200,0.658,3.085,0.000,11.984,0.000,0.000,25.994
7320,4.200,0.648,3.089,0.000,11.999,0.000,0.000,25.979
7340,4.200,0.640,3.093,0.000,12.014,0.000,0.000,25.981
7360,4.200,0.632,3.096,0.000,12.029,0.000,0.000,25.951
7380,4.200,0.624,3.100,0.000,12.043,0.000,0.000,25.927
7400,4.200,0.615,3.103,0.000,12.058,0.000,0.000,25.915
7420,4.200,0.608,3.106,0.000,12.072,0.000,0.000,25.823
7440,4.200,0.600,3.110,0.000,12.086,0.000,0.000,25.858
7460,4.200,0.592,3.113,0.000,12.100,0.000,0.000,25.850
7480,4.200,0.584,3.116,0.000,12.114,0.000,0.000,25.801
7500,4.200,0.576,3.120,0.000,12.127,0.000,0.000,25.806
7520,4.200,0.569,3.123,0.000,12.141,0.000,0.000,25.753
7540,4.200,0.561,3.126,0.000,12.154,0.000,0.000,25.758
7560,4.200,0.553,3.129,0.000,12.167,0.000,0.000,25.712
7580,4.200,0.546,3.132,0.000,12.180,0.000,0.000,25.710
7600,4.200,0.539,3.135,0.000,12.192,0.000,0.000,25.738
7620,4.200,0.531,3.138,0.000,12.205,0.000,0.000,25.715
7640,4.200,0.524,3.141,0.000,12.217,0.000,0.000,25.696
7660,4.200,0.517,3.144,0.000,12.229,0.000,0.000,25.645
7680,4.200,0.510,3.147,0.000,12.241,0.000,0.000,25.599
7700,4.200,0.502,3.150,0.000,12.253,0.000,0.000,25.614
7720,4.200,0.496,3.152,0.000,12.265,0.000,0.000,25.613
7740,4.200,0.488,3.155,0.000,12.276,0.000,0.000,25.558
7760,4.200,0.482,3.158,0.000,12.287,0.000,0.000,25.576
7780,4.200,0.475,3.160,0.000,12.299,0.000,0.000,25.560
7800,4.200,0.469,3.163,0.000,12.310,0.000,0.000,25.539
7820,4.200,0.461,3.166,0.000,12.320,0.000,0.000,25.533
7840,4.200,0.455,3.168,0.000,12.331,0.000,0.000,25.493
7860,4.200,0.449,3.171,0.000,12.342,0.000,0.000,25.480
7880,4.200,0.443,3.173,0.000,12.352,0.000,0.000,25.504
7900,4.200,0.437,3.176,0.000,12.362,0.000,0.000,25.464
7920,4.200,0.430,3.178,0.000,12.372,0.000,0.000,25.456
7940,4.200,0.424,3.180,0.000,12.382,0.000,0.000,25.464
7960,4.200,0.418,3.183,0.000,12.392,0.000,0.000,25.448
7980,4.200,0.412,3.185,0.000,12.402,0.000,0.000,25.393
8000,4.200,0.406,3.187,0.000,12.411,0.000,0.000,25.428
8020,4.200,0.400,3.190,0.000,12.421,0.000,0.000,25.380
8040,4.200,0.395,3.192,0.000,12.430,0.000,0.000,25.405
8060,4.200,0.388,3.194,0.000,12.439,0.000,0.000,25.396
8080,4.200,0.383,3.196,0.000,12.448,0.000,0.000,25.391
8100,4.200,0.378,3.198,0.000,12.457,0.000,0.000,25.373
8120,4.200,0.372,3.200,0.000,12.466,0.000,0.000,25.369
8140,4.200,0.366,3.202,0.000,12.475,0.000,0.000,25.377
8160,4.200,0.361,3.204,0.000,12.483,0.000,0.000,25.373
8180,4.200,0.355,3.206,0.000,12.491,0.000,0.000,25.327
8200,4.200,0.350,3.208,0.000,12.500,0.000,0.000,25.305
8220,4.200,0.345,3.210,0.000,12.508,0.000,0.000,25.334
8240,4.200,0.340,3.212,0.000,12.516,0.000,0.000,25.290
8260,4.200,0.334,3.214,0.000,12.524,0.000,0.000,25.310
8280,4.200,0.329,3.216,0.000,12.531,0.000,0.000,25.268
8300,4.200,0.324,3.218,0.000,12.539,0.000,0.000,25.265
8320,4.200,0.319,3.219,0.000,12.546,0.000,0.000,25.257
8340,4.200,0.315,3.221,0.000,12.554,0.000,0.000,25.243
8360,4.200,0.310,3.223,0.000,12.561,0.000,0.000,25.215
8380,4.200,0.305,3.225,0.000,12.568,0.000,0.000,25.238
8400,4.200,0.301,3.226,0.000,12.575,0.000,0.000,25.180
8420,4.200,0.296,3.228,0.000,12.582,0.000,0.000,25.231
8440,4.200,0.292,3.230,0.000,12.589,0.000,0.000,25.237
8460,4.200,0.287,3.231,0.000,12.596,0.000,0.000,25.164
8480,4.200,0.282,3.233,0.000,12.603,0.000,0.000,25.148
8500,4.200,0.278,3.234,0.000,12.609,0.000,0.000,25.241
8520,4.200,0.274,3.236,0.000,12.616,0.000,0.000,25.166
8540,4.200,0.269,3.237,0.000,12.622,0.000,0.000,25.183
8560,4.200,0.266,3.239,0.000,12.628,0.000,0.000,25.134
8580,4.200,0.261,3.240,0.000,12.634,0.000,0.000,25.157
8600,4.200,0.257,3.242,0.000,12.640,0.000,0.000,25.151
8620,4.200,0.253,3.243,0.000,12.646,0.000,0.000,25.138
8640,4.200,0.250,3.245,0.000,12.652,0.000,0.000,25.128
8660,4.200,0.245,3.246,0.000,12.658,0.000,0.000,25.142
8680,4.200,0.242,3.247,0.000,12.664,0.000,0.000,25.129
8700,4.200,0.237,3.249,0.000,12.669,0.000,0.000,25.133
8720,4.200,0.234,3.250,0.000,12.675,0.000,0.000,25.158
8740,4.200,0.230,3.251,0.000,12.680,0.000,0.000,25.126
8760,4.200,0.227,3.253,0.000,12.685,0.000,0.000,25.099
8780,4.200,0.223,3.254,0.000,12.691,0.000,0.000,25.127
8800,4.200,0.219,3.255,0.000,12.696,0.000,0.000,25.100
8820,4.200,0.216,3.256,0.000,12.701,0.000,0.000,25.113
8840,4.200,0.213,3.257,0.000,12.706,0.000,0.000,25.050
8860,4.200,0.209,3.259,0.000,12.711,0.000,0.000,25.091
8880,4.200,0.205,3.260,0.000,12.716,0.000,0.000,25.055
8900,4.200,0.203,3.261,0.000,12.720,0.000,0.000,25.056
8920,4.200,0.199,3.262,0.000,12.725,0.000,0.000,25.030
8940,4.200,0.196,3.263,0.000,12.730,0.000,0.000,25.057
8960,4.200,0.193,3.264,0.000,12.734,0.000,0.000,25.031
8980,4.200,0.190,3.265,0.000,12.739,0.000,0.000,25.008
9000,4.200,0.187,3.266,0.000,12.743,0.000,0.000,25.043
9020,4.200,0.184,3.267,0.000,12.747,0.000,0.000,25.013
9040,4.200,0.181,3.268,0.000,12.752,0.000,0.000,25.029
9060,4.200,0.179,3.269,0.000,12.756,0.000,0.000,24.998
9080,4.200,0.176,3.270,0.000,12.760,0.000,0.000,24.999
9100,4.200,0.173,3.271,0.000,12.764,0.000,0.000,25.008
9120,4.200,0.170,3.272,0.000,12.768,0.000,0.000,24.986
9140,4.200,0.167,3.273,0.000,12.772,0.000,0.000,25.024
9160,4.200,0.165,3.274,0.000,12.776,0.000,0.000,24.999
9180,4.200,0.162,3.275,0.000,12.780,0.000,0.000,24.992
9200,4.200,0.159,3.276,0.000,12.783,0.000,0.000,24.981
9220,4.200,0.157,3.277,0.000,12.787,0.000,0.000,24.963
9240,4.200,0.154,3.278,0.000,12.791,0.000,0.000,24.962
9260,4.200,0.152,3.278,0.000,12.794,0.000,0.000,24.965
9280,4.200,0.149,3.279,0.000,12.798,0.000,0.000,24.975
9300,4.200,0.148,3.280,0.000,12.801,0.000,0.000,24.957
9320,4.200,0.145,3.281,0.000,12.805,0.000,0.000,24.978
9340,4.200,0.142,3.282,0.000,12.808,0.000,0.000,24.978
9360,4.200,0.140,3.283,0.000,12.811,0.000,0.000,24.956
9380,4.200,0.138,3.283,0.000,12.815,0.000,0.000,25.020
9400,4.200,0.135,3.284,0.000,12.818,0.000,0.000,24.970
9420,4.200,0.134,3.285,0.000,12.821,0.000,0.000,24.975
9440,4.200,0.132,3.286,0.000,12.824,0.000,0.000,24.991
9460,4.200,0.130,3.286,0.000,12.827,0.000,0.000,24.950
9480,4.200,0.127,3.287,0.000,12.830,0.000,0.000,24.957
9500,4.200,0.126,3.288,0.000,12.833,0.000,0.000,24.966
9520,4.200,0.124,3.288,0.000,12.836,0.000,0.000,24.972
9540,4.200,0.122,3.289,0.000,12.839,0.000,0.000,24.955
9560,4.200,0.120,3.290,0.000,12.842,0.000,0.000,24.942
9580,4.200,0.119,3.290,0.000,12.844,0.000,0.000,24.947
9600,4.200,0.116,3.291,0.000,12.847,0.000,0.000,24.947
9620,4.200,0.114,3.292,0.000,12.850,0.000,0.000,24.969
9640,4.200,0.112,3.292,0.000,12.853,0.000,0.000,24.942
9660,4.200,0.111,3.293,0.000,12.855,0.000,0.000,24.914
9680,4.200,0.110,3.294,0.000,12.858,0.000,0.000,24.930
9700,4.200,0.108,3.294,0.000,12.860,0.000,0.000,24.918
9720,4.200,0.107,3.295,0.000,12.863,0.000,0.000,24.891
9740,4.200,0.105,3.295,0.000,12.865,0.000,0.000,24.932
9760,4.200,0.103,3.296,0.000,12.868,0.000,0.000,24.901
9780,4.200,0.101,3.296,0.000,12.870,0.000,0.000,24.941
9800,4.200,0.100,3.297,0.000,12.872,0.000,0.000,24.940
9820,4.200,0.098,3.298,0.000,12.875,0.000,0.000,24.921
9840,4.200,0.097,3.298,0.000,12.877,0.000,0.000,24.927
9860,4.200,0.095,3.299,0.000,12.879,0.000,0.000,24.940
9880,4.200,0.095,3.299,0.000,12.881,0.000,0.000,24.916
9900,4.200,0.093,3.300,0.000,12.884,0.000,0.000,24.922
9920,4.200,0.092,3.300,0.000,12.886,0.000,0.000,24.902
9940,4.200,0.090,3.301,0.000,12.888,0.000,0.000,24.913
9960,4.200,0.089,3.301,0.000,12.890,0.000,0.000,24.890
9980,4.200,0.087,3.302,0.000,12.892,0.000,0.000,24.891
10000,4.200,0.086,3.302,0.000,12.894,0.000,0.000,24.850
10020,4.200,0.085,3.303,0.000,12.896,0.000,0.000,24.917
10040,4.200,0.084,3.303,0.000,12.898,0.000,0.000,24.885
10060,4.200,0.082,3.304,0.000,12.900,0.000,0.000,24.900
10080,4.200,0.082,3.304,0.000,12.902,0.000,0.000,24.922
10100,4.200,0.080,3.305,0.000,12.904,0.000,0.000,24.925
10120,4.200,0.079,3.305,0.000,12.906,0.000,0.000,24.879
10140,4.200,0.078,3.305,0.000,12.907,0.000,0.000,24.885
10160,4.200,0.077,3.306,0.000,12.909,0.000,0.000,24.900
10180,4.200,0.076,3.306,0.000,12.911,0.000,0.000,24.886
10200,4.200,0.075,3.307,0.000,12.913,0.000,0.000,24.916
10220,4.200,0.074,3.307,0.000,12.914,0.000,0.000,24.902
10240,4.200,0.073,3.307,0.000,12.916,0.000,0.000,24.940
10260,4.200,0.071,3.308,0.000,12.918,0.000,0.000,24.900
10280,4.200,0.070,3.308,0.000,12.920,0.000,0.000,24.858
10300,4.200,0.069,3.309,0.000,12.921,0.000,0.000,24.874
10320,4.200,0.068,3.309,0.000,12.923,0.000,0.000,24.888
10340,4.200,0.068,3.309,0.000,12.924,0.000,0.000,24.929
10360,4.200,0.066,3.310,0.000,12.926,0.000,0.000,24.911
10380,4.200,0.066,3.310,0.000,12.927,0.000,0.000,24.915
10399,4.194,0.000,3.310,0.000,12.928,0.000,0.000,24.894
10419,4.193,0.000,3.310,0.000,12.928,0.000,0.000,24.883
10439,4.192,0.000,3.310,0.000,12.928,0.000,0.000,24.891
10459,4.192,0.000,3.310,0.000,12.928,0.000,0.000,24.885
10479,4.192,0.000,3.310,0.000,12.928,0.000,0.000,24.885
10499,4.191,0.000,3.310,0.000,12.928,0.000,0.000,24.859
10519,4.191,0.000,3.310,0.000,12.928,0.000,0.000,24.860
10539,4.191,0.000,3.310,0.000,12.928,0.000,0.000,24.907
10559,4.190,0.000,3.310,0.000,12.928,0.000,0.000,24.877
10579,4.190,0.000,3.310,0.000,12.928,0.000,0.000,24.877
10599,4.190,0.000,3.310,0.000,12.928,0.000,0.000,24.885
10619,4.190,0.000,3.310,0.000,12.928,0.000,0.000,24.890
10639,4.189,0.000,3.310,0.000,12.928,0.000,0.000,24.891
10659,4.189,0.000,3.310,0.000,12.928,0.000,0.000,24.895
10679,4.189,0.000,3.310,0.000,12.928,0.000,0.000,24.894
10699,4.189,0.000,3.310,0.000,12.928,0.000,0.000,24.877
10719,4.188,0.000,3.310,0.000,12.928,0.000,0.000,24.903
10739,4.188,0.000,3.310,0.000,12.928,0.000,0.000,24.874
10759,4.188,0.000,3.310,0.000,12.928,0.000,0.000,24.919
10779,4.188,0.000,3.310,0.000,12.928,0.000,0.000,24.918
10799,4.188,0.000,3.310,0.000,12.928,0.000,0.000,24.846
10819,4.188,0.000,3.310,0.000,12.928,0.000,0.000,24.882
10839,4.187,0.000,3.310,0.000,12.928,0.000,0.000,24.886
10859,4.187,0.000,3.310,0.000,12.928,0.000,0.000,24.866
10879,4.187,0.000,3.310,0.000,12.928,0.000,0.000,24.829
10899,4.187,0.000,3.310,0.000,12.928,0.000,0.000,24.885
10919,4.187,0.000,3.310,0.000,12.928,0.000,0.000,24.861
10939,4.187,0.000,3.310,0.000,12.928,0.000,0.000,24.895
10959,4.187,0.000,3.310,0.000,12.928,0.000,0.000,24.875
10979,4.186,0.000,3.310,0.000,12.928,0.000,0.000,24.883
10999,4.186,0.000,3.310,0.000,12.928,0.000,0.000,24.858
11019,4.186,0.000,3.310,0.000,12.928,0.000,0.000,24.853
11039,4.186,0.000,3.310,0.000,12.928,0.000,0.000,24.879
11059,4.186,0.000,3.310,0.000,12.928,0.000,0.000,24.879
11079,4.186,0.000,3.310,0.000,12.928,0.000,0.000,24.867
11099,4.186,0.000,3.310,0.000,12.928,0.000,0.000,24.890
11119,4.186,0.000,3.310,0.000,12.928,0.000,0.000,24.915
11139,4.185,0.000,3.310,0.000,12.928,0.000,0.000,24.890
11159,4.185,0.000,3.310,0.000,12.928,0.000,0.000,24.884
11179,4.185,0.000,3.310,0.000,12.928,0.000,0.000,24.905
11199,4.185,0.000,3.310,0.000,12.928,0.000,0.000,24.892
11219,4.185,0.000,3.310,0.000,12.928,0.000,0.000,24.870
11239,4.185,0.000,3.310,0.000,12.928,0.000,0.000,24.912
11259,4.185,0.000,3.310,0.000,12.928,0.000,0.000,24.893
11279,4.185,0.000,3.310,0.000,12.928,0.000,0.000,24.845
11299,4.185,0.000,3.310,0.000,12.928,0.000,0.000,24.917
11319,4.184,0.000,3.310,0.000,12.928,0.000,0.000,24.930
11339,4.184,0.000,3.310,0.000,12.928,0.000,0.000,24.868
11359,4.184,0.000,3.310,0.000,12.928,0.000,0.000,24.900
11379,4.184,0.000,3.310,0.000,12.928,0.000,0.000,24.883
11399,4.184,0.000,3.310,0.000,12.928,0.000,0.000,24.879
11419,4.184,0.000,3.310,0.000,12.928,0.000,0.000,24.885
11439,4.184,0.000,3.310,0.000,12.928,0.000,0.000,24.922
11459,4.184,0.000,3.310,0.000,12.928,0.000,0.000,24.930
11479,4.184,0.000,3.310,0.000,12.928,0.000,0.000,24.895
11499,4.184,0.000,3.310,0.000,12.928,0.000,0.000,24.889
11519,4.184,0.000,3.310,0.000,12.928,0.000,0.000,24.893
11539,4.184,0.000,3.310,0.000,12.928,0.000,0.000,24.866
11559,4.184,0.000,3.310,0.000,12.928,0.000,0.000,24.901
11579,4.183,0.000,3.310,0.000,12.928,0.000,0.000,24.899
11599,4.183,0.000,3.310,0.000,12.928,0.000,0.000,24.880
11619,4.183,0.000,3.310,0.000,12.928,0.000,0.000,24.899
11639,4.183,0.000,3.310,0.000,12.928,0.000,0.000,24.856
11659,4.183,0.000,3.310,0.000,12.928,0.000,0.000,24.857
11679,4.183,0.000,3.310,0.000,12.928,0.000,0.000,24.883
11699,4.183,0.000,3.310,0.000,12.928,0.000,0.000,24.871
11719,4.183,0.000,3.310,0.000,12.928,0.000,0.000,24.907
11739,4.183,0.000,3.310,0.000,12.928,0.000,0.000,24.861
11759,4.183,0.000,3.310,0.000,12.928,0.000,0.000,24.886
11779,4.183,0.000,3.310,0.000,12.928,0.000,0.000,24.851
11799,4.183,0.000,3.310,0.000,12.928,0.000,0.000,24.912
11819,4.183,0.000,3.310,0.000,12.928,0.000,0.000,24.928
11839,4.182,0.000,3.310,0.000,12.928,0.000,0.000,24.885
11859,4.183,0.000,3.310,0.000,12.928,0.000,0.000,24.911
11879,4.182,0.000,3.310,0.000,12.928,0.000,0.000,24.866
11899,4.182,0.000,3.310,0.000,12.928,0.000,0.000,24.923
11919,4.182,0.000,3.310,0.000,12.928,0.000,0.000,24.903
11939,4.182,0.000,3.310,0.000,12.928,0.000,0.000,24.875
11959,4.182,0.000,3.310,0.000,12.928,0.000,0.000,24.887
11979,4.182,0.000,3.310,0.000,12.928,0.000,0.000,24.888
11999,4.182,0.000,3.310,0.000,12.928,0.000,0.000,24.887
12019,4.182,0.000,3.310,0.000,12.928,0.000,0.000,24.899
12039,4.182,0.000,3.310,0.000,12.928,0.000,0.000,24.932
12059,4.182,0.000,3.310,0.000,12.928,0.000,0.000,24.937
12079,4.182,0.000,3.310,0.000,12.928,0.000,0.000,24.913
12099,4.182,0.000,3.310,0.000,12.928,0.000,0.000,24.919
12119,4.182,0.000,3.310,0.000,12.928,0.000,0.000,24.905
12139,4.182,0.000,3.310,0.000,12.928,0.000,0.000,24.894
12159,4.182,0.000,3.310,0.000,12.928,0.000,0.000,24.916
12179,4.182,0.000,3.310,0.000,12.928,0.000,0.000,24.885
12199,4.181,0.000,3.310,0.000,12.928,0.000,0.000,24.968
12219,4.181,0.000,3.310,0.000,12.928,0.000,0.000,24.892
12239,4.181,0.000,3.310,0.000,12.928,0.000,0.000,24.914
12259,4.181,0.000,3.310,0.000,12.928,0.000,0.000,24.859
12279,4.181,0.000,3.310,0.000,12.928,0.000,0.000,24.902
12299,4.181,0.000,3.310,0.000,12.928,0.000,0.000,24.894
12319,4.181,0.000,3.310,0.000,12.928,0.000,0.000,24.913
12339,4.181,0.000,3.310,0.000,12.928,0.000,0.000,24.867
12359,4.181,0.000,3.310,0.000,12.928,0.000,0.000,24.928
12379,4.181,0.000,3.310,0.000,12.928,0.000,0.000,24.888
12399,4.181,0.000,3.310,0.000,12.928,0.000,0.000,24.937
12419,4.181,0.000,3.310,0.000,12.928,0.000,0.000,24.868
12439,4.181,0.000,3.310,0.000,12.928,0.000,0.000,24.917
12459,4.181,0.000,3.310,0.000,12.928,0.000,0.000,24.950
12479,4.181,0.000,3.310,0.000,12.928,0.000,0.000,24.908
12499,4.181,0.000,3.310,0.000,12.928,0.000,0.000,24.913
12519,4.181,0.000,3.310,0.000,12.928,0.000,0.000,24.946
12539,4.181,0.000,3.310,0.000,12.928,0.000,0.000,24.930
12559,4.181,0.000,3.310,0.000,12.928,0.000,0.000,24.845
12579,4.181,0.000,3.310,0.000,12.928,0.000,0.000,24.919
12599,4.181,0.000,3.310,0.000,12.928,0.000,0.000,24.953
12619,4.180,0.000,3.310,0.000,12.928,0.000,0.000,24.893
12639,4.180,0.000,3.310,0.000,12.928,0.000,0.000,24.943
12659,4.180,0.000,3.310,0.000,12.928,0.000,0.000,24.955
12679,4.180,0.000,3.310,0.000,12.928,0.000,0.000,24.943
12699,4.180,0.000,3.310,0.000,12.928,0.000,0.000,24.883
12719,4.180,0.000,3.310,0.000,12.928,0.000,0.000,24.886
12739,4.180,0.000,3.310,0.000,12.928,0.000,0.000,24.920
12759,4.180,0.000,3.310,0.000,12.928,0.000,0.000,24.858
12779,4.180,0.000,3.310,0.000,12.928,0.000,0.000,24.929
12799,4.180,0.000,3.310,0.000,12.928,0.000,0.000,24.921
12819,4.180,0.000,3.310,0.000,12.928,0.000,0.000,24.955
12839,4.180,0.000,3.310,0.000,12.928,0.000,0.000,24.940
12859,4.180,0.000,3.310,0.000,12.928,0.000,0.000,24.922
12879,4.180,0.000,3.310,0.000,12.928,0.000,0.000,24.897
12899,4.180,0.000,3.310,0.000,12.928,0.000,0.000,24.970
12919,4.180,0.000,3.310,0.000,12.928,0.000,0.000,24.911
12939,4.180,0.000,3.310,0.000,12.928,0.000,0.000,24.922
12959,4.180,0.000,3.310,0.000,12.928,0.000,0.000,24.952
12979,4.180,0.000,3.310,0.000,12.928,0.000,0.000,24.913
12999,4.180,0.000,3.310,0.000,12.928,0.000,0.000,24.965
13019,4.180,0.000,3.310,0.000,12.928,0.000,0.000,24.917
13039,4.180,0.000,3.310,0.000,12.928,0.000,0.000,24.942
13059,4.179,0.000,3.310,0.000,12.928,0.000,0.000,24.987
13079,4.180,0.000,3.310,0.000,12.928,0.000,0.000,24.939
13099,4.179,0.000,3.310,0.000,12.928,0.000,0.000,24.920
13119,4.179,0.000,3.310,0.000,12.928,0.000,0.000,24.956
13139,4.179,0.000,3.310,0.000,12.928,0.000,0.000,24.909
13159,4.179,0.000,3.310,0.000,12.928,0.000,0.000,24.927
13179,4.179,0.000,3.310,0.000,12.928,0.000,0.000,24.905
13199,4.179,0.000,3.310,0.000,12.928,0.000,0.000,24.954
13219,4.179,0.000,3.310,0.000,12.928,0.000,0.000,24.946
13239,4.179,0.000,3.310,0.000,12.928,0.000,0.000,24.948
13259,4.179,0.000,3.310,0.000,12.928,0.000,0.000,24.908
13279,4.179,0.000,3.310,0.000,12.928,0.000,0.000,24.937
13299,4.179,0.000,3.310,0.000,12.928,0.000,0.000,24.900
13319,4.179,0.000,3.310,0.000,12.928,0.000,0.000,24.945
13339,4.179,0.000,3.310,0.000,12.928,0.000,0.000,24.946
13359,4.179,0.000,3.310,0.000,12.928,0.000,0.000,24.978
13379,4.179,0.000,3.310,0.000,12.928,0.000,0.000,24.898
13399,4.179,0.000,3.310,0.000,12.928,0.000,0.000,24.953
13419,4.179,0.000,3.310,0.000,12.928,0.000,0.000,24.914
13439,4.179,0.000,3.310,0.000,12.928,0.000,0.000,24.901
13459,4.179,0.000,3.310,0.000,12.928,0.000,0.000,24.925
13479,4.179,0.000,3.310,0.000,12.928,0.000,0.000,24.946
13499,4.179,0.000,3.310,0.000,12.928,0.000,0.000,24.908
13519,4.179,0.000,3.310,0.000,12.928,0.000,0.000,24.956
13539,4.179,0.000,3.310,0.000,12.928,0.000,0.000,24.945
13559,4.179,0.000,3.310,0.000,12.928,0.000,0.000,24.940
13579,4.179,0.000,3.310,0.000,12.928,0.000,0.000,24.976
13599,4.179,0.000,3.310,0.000,12.928,0.000,0.000,24.924
13619,4.179,0.000,3.310,0.000,12.928,0.000,0.000,24.920
13639,4.179,0.000,3.310,0.000,12.928,0.000,0.000,24.910
13659,4.179,0.000,3.310,0.000,12.928,0.000,0.000,24.942
13679,4.179,0.000,3.310,0.000,12.928,0.000,0.000,24.928
13699,4.179,0.000,3.310,0.000,12.928,0.000,0.000,24.969
13719,4.179,0.000,3.310,0.000,12.928,0.000,0.000,24.937
13739,4.179,0.000,3.310,0.000,12.928,0.000,0.000,24.962
13759,4.179,0.000,3.310,0.000,12.928,0.000,0.000,24.921
13779,4.178,0.000,3.310,0.000,12.928,0.000,0.000,24.953
13799,4.178,0.000,3.310,0.000,12.928,0.000,0.000,24.946
13819,4.178,0.000,3.310,0.000,12.928,0.000,0.000,24.935
13839,4.178,0.000,3.310,0.000,12.928,0.000,0.000,24.898
13859,4.178,0.000,3.310,0.000,12.928,0.000,0.000,24.937
13879,4.178,0.000,3.310,0.000,12.928,0.000,0.000,24.932
13899,4.178,0.000,3.310,0.000,12.928,0.000,0.000,24.930
13919,4.178,0.000,3.310,0.000,12.928,0.000,0.000,24.941
13939,4.178,0.000,3.310,0.000,12.928,0.000,0.000,24.936
13959,4.178,0.000,3.310,0.000,12.928,0.000,0.000,24.939
13979,4.178,0.000,3.310,0.000,12.928,0.000,0.000,24.936
13998,2.958,-16.747,3.310,0.033,12.928,0.098,-0.011,25.290
14018,2.822,-16.748,3.310,0.126,12.928,0.366,-0.005,28.989
14038,2.720,-16.748,3.310,0.219,12.928,0.624,-0.006,33.970
14057,3.884,0.000,3.310,0.276,12.928,0.777,0.010,38.659
14077,3.976,0.000,3.310,0.276,12.928,0.777,0.003,39.888
14097,4.012,0.000,3.310,0.276,12.928,0.777,0.001,39.217
14117,4.031,0.000,3.310,0.276,12.928,0.777,0.001,38.447
14137,4.042,0.000,3.310,0.276,12.928,0.777,0.000,37.570
14157,4.049,0.000,3.310,0.276,12.928,0.777,0.000,36.565
14177,4.054,0.000,3.310,0.276,12.928,0.777,0.000,35.760
14197,4.058,0.000,3.310,0.276,12.928,0.777,0.000,35.064
14217,4.062,0.000,3.310,0.276,12.928,0.777,0.000,34.458
14237,4.065,0.000,3.310,0.276,12.928,0.777,0.000,33.819
14257,4.066,0.000,3.310,0.276,12.928,0.777,0.000,33.227
14277,4.068,0.000,3.310,0.276,12.928,0.777,0.000,32.712
14297,4.069,0.000,3.310,0.276,12.928,0.777,0.000,32.254
14317,4.070,0.000,3.310,0.276,12.928,0.777,0.000,31.682
14337,4.070,0.000,3.310,0.276,12.928,0.777,0.000,31.346
14357,4.071,0.000,3.310,0.276,12.928,0.777,0.000,30.911
14377,4.071,0.000,3.310,0.276,12.928,0.777,0.000,30.569
14397,4.071,0.000,3.310,0.276,12.928,0.777,0.000,30.260
14417,4.071,0.000,3.310,0.276,12.928,0.777,0.000,29.978
14437,4.072,0.000,3.310,0.276,12.928,0.777,0.000,29.664
14457,4.072,0.000,3.310,0.276,12.928,0.777,0.000,29.416
14477,4.072,0.000,3.310,0.276,12.928,0.777,0.000,29.122
14497,4.072,0.000,3.310,0.276,12.928,0.777,0.000,28.866
14517,4.072,0.000,3.310,0.276,12.928,0.777,0.000,28.647
14537,4.072,0.000,3.310,0.276,12.928,0.777,0.000,28.451
14557,4.072,0.000,3.310,0.276,12.928,0.777,0.000,28.233
14577,4.072,0.000,3.310,0.276,12.928,0.777,0.000,28.127
14597,4.072,0.000,3.310,0.276,12.928,0.777,0.000,27.894
14617,4.072,0.000,3.310,0.276,12.928,0.777,0.000,27.798
14637,4.073,0.000,3.310,0.276,12.928,0.777,0.000,27.548
14657,4.073,0.000,3.310,0.276,12.928,0.777,0.000,27.479
14677,4.073,0.000,3.310,0.276,12.928,0.777,0.000,27.369
14697,4.073,0.000,3.310,0.276,12.928,0.777,0.000,27.221
14717,4.073,0.000,3.310,0.276,12.928,0.777,0.000,27.106
14737,4.073,0.000,3.310,0.276,12.928,0.777,0.000,27.028
14757,4.073,0.000,3.310,0.276,12.928,0.777,0.000,26.899
14777,4.073,0.000,3.310,0.276,12.928,0.777,0.000,26.707
14797,4.073,0.000,3.310,0.276,12.928,0.777,0.000,26.718
14817,4.073,0.000,3.310,0.276,12.928,0.777,0.000,26.590
14837,4.073,0.000,3.310,0.276,12.928,0.777,0.000,26.504
14857,4.073,0.000,3.310,0.276,12.928,0.777,0.000,26.461
14877,4.073,0.000,3.310,0.276,12.928,0.777,0.000,26.395
14897,4.073,0.000,3.310,0.276,12.928,0.777,0.000,26.359
14917,4.073,0.000,3.310,0.276,12.928,0.777,0.000,26.324
14937,4.073,0.000,3.310,0.276,12.928,0.777,0.000,26.188
14957,4.073,0.000,3.310,0.276,12.928,0.777,0.000,26.138
14977,4.073,0.000,3.310,0.276,12.928,0.777,0.000,26.068
14997,4.073,0.000,3.310,0.276,12.928,0.777,0.000,26.024
15017,4.073,0.000,3.310,0.276,12.928,0.777,0.000,25.946
15037,4.073,0.000,3.310,0.276,12.928,0.777,0.000,25.920
15057,4.073,0.000,3.310,0.276,12.928,0.777,0.000,25.897
15077,4.073,0.000,3.310,0.276,12.928,0.777,0.000,25.895
15097,4.073,0.000,3.310,0.276,12.928,0.777,0.000,25.988
15117,4.073,0.000,3.310,0.276,12.928,0.777,0.000,26.069
15137,4.073,0.000,3.310,0.276,12.928,0.777,0.000,26.091
15157,4.073,0.000,3.310,0.276,12.928,0.777,0.000,26.051
15177,4.073,0.000,3.310,0.276,12.928,0.777,0.000,25.995
15197,4.073,0.000,3.310,0.276,12.928,0.777,0.000,25.897
15217,4.073,0.000,3.310,0.276,12.928,0.777,0.000,25.817
15237,4.073,0.000,3.310,0.276,12.928,0.777,0.000,25.735
15257,4.073,0.000,3.310,0.276,12.928,0.777,0.000,25.684
15277,4.073,0.000,3.310,0.276,12.928,0.777,0.000,25.669
15297,4.073,0.000,3.310,0.276,12.928,0.777,0.000,25.615
15317,4.073,0.000,3.310,0.276,12.928,0.777,0.000,25.639
15337,4.073,0.000,3.310,0.276,12.928,0.777,0.000,25.568
15357,4.073,0.000,3.310,0.276,12.928,0.777,0.000,25.560
15377,4.073,0.000,3.310,0.276,12.928,0.777,0.000,25.544
15397,4.073,0.000,3.310,0.276,12.928,0.777,0.000,25.501
15417,4.073,0.000,3.310,0.276,12.928,0.777,0.000,25.533
15437,4.073,0.000,3.310,0.276,12.928,0.777,0.000,25.500
15457,4.073,0.000,3.310,0.276,12.928,0.777,0.000,25.505
15477,4.073,0.000,3.310,0.276,12.928,0.777,0.000,25.441
15497,4.073,0.000,3.310,0.276,12.928,0.777,0.000,25.452
15517,4.073,0.000,3.310,0.276,12.928,0.777,0.000,25.428
15537,4.073,0.000,3.310,0.276,12.928,0.777,0.000,25.483
15557,4.073,0.000,3.310,0.276,12.928,0.777,0.000,25.457
15577,4.073,0.000,3.310,0.276,12.928,0.777,0.000,25.418
15597,4.073,0.000,3.310,0.276,12.928,0.777,0.000,25.460
15617,4.073,0.000,3.310,0.276,12.928,0.777,0.000,25.410
15637,4.073,0.000,3.310,0.276,12.928,0.777,0.000,25.431
15657,4.073,0.000,3.310,0.276,12.928,0.777,0.000,25.420
15677,4.073,0.000,3.310,0.276,12.928,0.777,0.000,25.469
15697,4.073,0.000,3.310,0.276,12.928,0.777,0.000,25.449
15717,4.073,0.000,3.310,0.276,12.928,0.777,0.000,25.403
15737,4.073,0.000,3.310,0.276,12.928,0.777,0.000,25.426
15757,4.073,0.000,3.310,0.276,12.928,0.777,0.000,25.423
15777,4.074,0.000,3.310,0.276,12.928,0.777,0.000,25.394
15797,4.074,0.000,3.310,0.276,12.928,0.777,0.000,25.389
15817,4.073,0.000,3.310,0.276,12.928,0.777,0.000,25.408
15837,4.073,0.000,3.310,0.276,12.928,0.777,0.000,25.431
15857,4.074,0.000,3.310,0.276,12.928,0.777,0.000,25.407
15877,4.073,0.000,3.310,0.276,12.928,0.777,0.000,25.427
15897,4.073,0.000,3.310,0.276,12.928,0.777,0.000,25.408
15917,4.074,0.000,3.310,0.276,12.928,0.777,0.000,25.422
15937,4.073,0.000,3.310,0.276,12.928,0.777,0.000,25.358
15957,4.074,0.000,3.310,0.276,12.928,0.777,0.000,25.441
15977,4.074,0.000,3.310,0.276,12.928,0.777,0.000,25.418
15997,4.074,0.000,3.310,0.276,12.928,0.777,0.000,25.429
16017,4.074,0.000,3.310,0.276,12.928,0.777,0.000,25.388
16037,4.074,0.000,3.310,0.276,12.928,0.777,0.000,25.357
16057,4.074,0.000,3.310,0.276,12.928,0.777,0.000,25.406
16077,4.074,0.000,3.310,0.276,12.928,0.777,0.000,25.406
16097,4.074,0.000,3.310,0.276,12.928,0.777,0.000,25.396
16117,4.074,0.000,3.310,0.276,12.928,0.777,0.000,25.459
16137,4.074,0.000,3.310,0.276,12.928,0.777,0.000,25.397
16157,4.073,0.000,3.310,0.276,12.928,0.777,0.000,25.385
16177,4.074,0.000,3.310,0.276,12.928,0.777,0.000,25.406
16197,4.074,0.000,3.310,0.276,12.928,0.777,0.000,25.427
16217,4.074,0.000,3.310,0.276,12.928,0.777,0.000,25.430
16237,4.074,0.000,3.310,0.276,12.928,0.777,0.000,25.408
16257,4.074,0.000,3.310,0.276,12.928,0.777,0.000,25.412
16277,4.074,0.000,3.310,0.276,12.928,0.777,0.000,25.394
16297,4.074,0.000,3.310,0.276,12.928,0.777,0.000,25.468
16317,4.074,0.000,3.310,0.276,12.928,0.777,0.000,25.501
16337,4.074,0.000,3.310,0.276,12.928,0.777,0.000,25.457
16357,4.074,0.000,3.310,0.276,12.928,0.777,0.000,25.464
16377,4.074,0.000,3.310,0.276,12.928,0.777,0.000,25.404
16397,4.074,0.000,3.310,0.276,12.928,0.777,0.000,25.459
16417,4.074,0.000,3.310,0.276,12.928,0.777,0.000,25.422
16437,4.074,0.000,3.310,0.276,12.928,0.777,0.000,25.451
16457,4.074,0.000,3.310,0.276,12.928,0.777,0.000,25.424
16477,4.074,0.000,3.310,0.276,12.928,0.777,0.000,25.437
16497,4.074,0.000,3.310,0.276,12.928,0.777,0.000,25.443
16517,4.074,0.000,3.310,0.276,12.928,0.777,0.000,25.407
16537,4.074,0.000,3.310,0.276,12.928,0.777,0.000,25.409
16557,4.074,0.000,3.310,0.276,12.928,0.777,0.000,25.437
16577,4.074,0.000,3.310,0.276,12.928,0.777,0.000,25.442
16597,4.074,0.000,3.310,0.276,12.928,0.777,0.000,25.494
16617,4.074,0.000,3.310,0.276,12.928,0.777,0.000,25.444
16637,4.074,0.000,3.310,0.276,12.928,0.777,0.000,25.478
16657,4.074,0.000,3.310,0.276,12.928,0.777,0.000,25.441
16677,4.074,0.000,3.310,0.276,12.928,0.777,0.000,25.428
16697,4.074,0.000,3.310,0.276,12.928,0.777,0.000,25.435
16717,4.074,0.000,3.310,0.276,12.928,0.777,0.000,25.473
16737,4.074,0.000,3.310,0.276,12.928,0.777,0.000,25.408
16757,4.074,0.000,3.310,0.276,12.928,0.777,0.000,25.405
16777,4.074,0.000,3.310,0.276,12.928,0.777,0.000,25.383
16797,4.074,0.000,3.310,0.276,12.928,0.777,0.000,25.436
16817,4.074,0.000,3.310,0.276,12.928,0.777,0.000,25.454
16837,4.074,0.000,3.310,0.276,12.928,0.777,0.000,25.394
16857,4.074,0.000,3.310,0.276,12.928,0.777,0.000,25.396
16877,4.074,0.000,3.310,0.276,12.928,0.777,0.000,25.380
16897,4.074,0.000,3.310,0.276,12.928,0.777,0.000,25.411
16917,4.074,0.000,3.310,0.276,12.928,0.777,0.000,25.421
16937,4.074,0.000,3.310,0.276,12.928,0.777,0.000,25.418
16957,4.074,0.000,3.310,0.276,12.928,0.777,0.000,25.416
16977,4.074,0.000,3.310,0.276,12.928,0.777,0.000,25.392
16997,4.074,0.000,3.310,0.276,12.928,0.777,0.000,25.407
17017,4.074,0.000,3.310,0.276,12.928,0.777,0.000,25.419
17037,4.074,0.000,3.310,0.276,12.928,0.777,0.000,25.376
17057,4.074,0.000,3.310,0.276,12.928,0.777,0.000,25.424
17077,4.074,0.000,3.310,0.276,12.928,0.777,0.000,25.395
17097,4.074,0.000,3.310,0.276,12.928,0.777,0.000,25.379
17117,4.074,0.000,3.310,0.276,12.928,0.777,0.000,25.384
17137,4.074,0.000,3.310,0.276,12.928,0.777,0.000,25.392
17157,4.074,0.000,3.310,0.276,12.928,0.777,0.000,25.381
17177,4.074,0.000,3.310,0.276,12.928,0.777,0.000,25.344
17197,4.074,0.000,3.310,0.276,12.928,0.777,0.000,25.388
17217,4.074,0.000,3.310,0.276,12.928,0.777,0.000,25.392
17237,4.074,0.000,3.310,0.276,12.928,0.777,0.000,25.393
17257,4.074,0.000,3.310,0.276,12.928,0.777,0.000,25.379
17277,4.074,0.000,3.310,0.276,12.928,0.777,0.000,25.370
17297,4.074,0.000,3.310,0.276,12.928,0.777,0.000,25.362
17317,4.074,0.000,3.310,0.276,12.928,0.777,0.000,25.386
17337,4.074,0.000,3.310,0.276,12.928,0.777,0.000,25.347
17357,4.074,0.000,3.310,0.276,12.928,0.777,0.000,25.378
17377,4.074,0.000,3.310,0.276,12.928,0.777,0.000,25.358
17397,4.074,0.000,3.310,0.276,12.928,0.777,0.000,25.328
17417,4.074,0.000,3.310,0.276,12.928,0.777,0.000,25.326
17437,4.074,0.000,3.310,0.276,12.928,0.777,0.000,25.339
17457,4.074,0.000,3.310,0.276,12.928,0.777,0.000,25.317
17477,4.074,0.000,3.310,0.276,12.928,0.777,0.000,25.352
17497,4.074,0.000,3.310,0.276,12.928,0.777,0.000,25.297
17517,4.074,0.000,3.310,0.276,12.928,0.777,0.000,25.314
17537,4.074,0.000,3.310,0.276,12.928,0.777,0.000,25.337
17557,4.074,0.000,3.310,0.276,12.928,0.777,0.000,25.312
17577,4.074,0.000,3.310,0.276,12.928,0.777,0.000,25.331
17597,4.074,0.000,3.310,0.276,12.928,0.777,0.000,25.347
17617,4.074,0.000,3.310,0.276,12.928,0.777,0.000,25.332
17637,4.074,0.000,3.310,0.276,12.928,0.777,0.000,25.328
17650,4.074,0.000,3.310,0.276,12.928,0.777,0.000,25.326