File: data/T25/5C/3.csv
time_s,voltage_v,current_a,chargecapacity_ah,dischargecapacity_ah,charge_energy_wh,discharge_energy_wh,voltagedot_v_per_s,temp_degc
1,4.144,0.000,0.000,0.000,0.000,0.000,0.000,25.815
11,4.144,0.000,0.000,0.000,0.000,0.000,0.000,25.770
21,4.144,0.000,0.000,0.000,0.000,0.000,0.000,25.695
31,4.144,0.000,0.000,0.000,0.000,0.000,0.000,25.627
41,4.144,0.000,0.000,0.000,0.000,0.000,0.000,25.625
51,4.144,0.000,0.000,0.000,0.000,0.000,0.000,25.586
60,4.144,0.000,0.000,0.000,0.000,0.000,0.000,25.519
69,4.200,0.410,0.001,0.000,0.004,0.000,0.000,25.510
79,4.200,0.400,0.002,0.000,0.009,0.000,0.000,25.472
89,4.200,0.361,0.003,0.000,0.014,0.000,0.000,25.415
99,4.201,0.321,0.004,0.000,0.018,0.000,-0.001,25.432
109,4.200,0.329,0.005,0.000,0.022,0.000,0.000,25.384
119,4.201,0.308,0.006,0.000,0.025,0.000,0.000,25.364
129,4.200,0.263,0.007,0.000,0.029,0.000,0.001,25.333
139,4.199,0.248,0.007,0.000,0.031,0.000,0.000,25.310
149,4.199,0.199,0.008,0.000,0.034,0.000,0.001,25.321
159,4.199,0.178,0.009,0.000,0.036,0.000,0.001,25.315
169,4.200,0.160,0.009,0.000,0.038,0.000,0.000,25.302
179,4.200,0.157,0.010,0.000,0.040,0.000,0.001,25.290
189,4.200,0.132,0.010,0.000,0.042,0.000,0.001,25.300
199,4.201,0.142,0.010,0.000,0.043,0.000,0.001,25.274
209,4.200,0.120,0.011,0.000,0.045,0.000,0.000,25.271
219,4.201,0.131,0.011,0.000,0.046,0.000,0.000,25.263
229,4.201,0.124,0.011,0.000,0.048,0.000,0.000,25.245
239,4.200,0.142,0.012,0.000,0.049,0.000,0.001,25.246
249,4.201,0.129,0.012,0.000,0.051,0.000,0.000,25.286
259,4.200,0.126,0.012,0.000,0.052,0.000,0.000,25.252
269,4.200,0.141,0.013,0.000,0.054,0.000,0.000,25.245
279,4.200,0.149,0.013,0.000,0.055,0.000,0.000,25.222
289,4.199,0.145,0.014,0.000,0.057,0.000,0.001,25.267
299,4.200,0.136,0.014,0.000,0.059,0.000,0.000,25.227
309,4.201,0.105,0.014,0.000,0.060,0.000,-0.002,25.252
319,4.200,0.101,0.015,0.000,0.061,0.000,0.000,25.219
329,4.199,0.097,0.015,0.000,0.063,0.000,0.013,25.233
339,4.199,0.094,0.015,0.000,0.064,0.000,-0.001,25.239
349,4.200,0.101,0.015,0.000,0.065,0.000,0.001,25.211
359,4.197,0.091,0.016,0.000,0.066,0.000,0.004,25.239
369,4.196,0.100,0.016,0.000,0.067,0.000,0.001,25.246
379,4.194,0.099,0.016,0.000,0.068,0.000,-0.007,25.233
389,4.199,0.114,0.017,0.000,0.070,0.000,0.002,25.226
399,4.200,0.104,0.017,0.000,0.071,0.000,0.000,25.195
409,4.198,0.114,0.017,0.000,0.072,0.000,-0.003,25.207
419,4.200,0.118,0.017,0.000,0.073,0.000,-0.002,25.240
429,4.200,0.126,0.018,0.000,0.075,0.000,0.001,25.202
439,4.199,0.128,0.018,0.000,0.076,0.000,0.001,25.206
449,4.200,0.132,0.018,0.000,0.078,0.000,-0.001,25.193
459,4.200,0.112,0.019,0.000,0.079,0.000,0.000,25.236
469,4.200,0.121,0.019,0.000,0.081,0.000,0.003,25.213
479,4.200,0.142,0.020,0.000,0.082,0.000,0.002,25.185
489,4.202,0.143,0.020,0.000,0.084,0.000,0.002,25.196
499,4.200,0.158,0.020,0.000,0.086,0.000,-0.001,25.220
509,4.200,0.180,0.021,0.000,0.088,0.000,0.001,25.201
519,4.200,0.176,0.021,0.000,0.090,0.000,0.001,25.208
529,4.200,0.155,0.022,0.000,0.092,0.000,0.000,25.179
539,4.200,0.158,0.022,0.000,0.094,0.000,-0.001,25.181
549,4.201,0.143,0.023,0.000,0.096,0.000,0.000,25.187
559,4.200,0.165,0.023,0.000,0.097,0.000,0.001,25.155
569,4.201,0.158,0.024,0.000,0.099,0.000,0.003,25.191
579,4.201,0.172,0.024,0.000,0.101,0.000,-0.001,25.163
589,4.199,0.184,0.025,0.000,0.104,0.000,-0.002,25.206
599,4.201,0.192,0.025,0.000,0.106,0.000,0.000,25.164
609,4.200,0.201,0.026,0.000,0.108,0.000,0.000,25.212
619,4.200,0.186,0.026,0.000,0.111,0.000,0.000,25.176
629,4.200,0.205,0.027,0.000,0.113,0.000,0.000,25.146
639,4.200,0.213,0.027,0.000,0.115,0.000,0.000,25.159
649,4.200,0.209,0.028,0.000,0.118,0.000,0.000,25.197
659,4.200,0.203,0.029,0.000,0.120,0.000,0.000,25.163
669,4.200,0.194,0.029,0.000,0.122,0.000,0.000,25.165
679,4.200,0.186,0.030,0.000,0.125,0.000,0.000,25.219
689,4.200,0.164,0.030,0.000,0.127,0.000,0.000,25.192
699,4.199,0.169,0.031,0.000,0.129,0.000,0.001,25.194
709,4.200,0.158,0.031,0.000,0.131,0.000,-0.001,25.147
719,4.200,0.143,0.032,0.000,0.132,0.000,0.000,25.156
729,4.201,0.116,0.032,0.000,0.134,0.000,0.002,25.138
739,4.200,0.135,0.032,0.000,0.135,0.000,0.000,25.194
749,4.200,0.129,0.033,0.000,0.137,0.000,0.001,25.157
759,4.199,0.125,0.033,0.000,0.138,0.000,-0.002,25.128
769,4.199,0.127,0.033,0.000,0.140,0.000,0.001,25.154
779,4.201,0.126,0.034,0.000,0.141,0.000,-0.001,25.139
789,4.201,0.124,0.034,0.000,0.143,0.000,0.000,25.152
799,4.201,0.106,0.034,0.000,0.144,0.000,0.000,25.115
809,4.200,0.119,0.035,0.000,0.145,0.000,-0.001,25.143
819,4.200,0.107,0.035,0.000,0.147,0.000,0.002,25.120
829,4.199,0.106,0.035,0.000,0.148,0.000,0.000,25.104
839,4.200,0.102,0.035,0.000,0.149,0.000,0.000,25.174
849,4.200,0.091,0.036,0.000,0.150,0.000,0.000,25.128
859,4.201,0.081,0.036,0.000,0.151,0.000,0.004,25.166
869,4.200,0.091,0.036,0.000,0.152,0.000,-0.001,25.104
879,4.201,0.087,0.037,0.000,0.153,0.000,-0.003,25.135
889,4.199,0.091,0.037,0.000,0.154,0.000,-0.001,25.171
899,4.199,0.103,0.037,0.000,0.155,0.000,-0.001,25.097
909,4.200,0.099,0.037,0.000,0.157,0.000,0.001,25.132
919,4.202,0.086,0.038,0.000,0.158,0.000,0.001,25.122
929,4.199,0.084,0.038,0.000,0.159,0.000,-0.001,25.110
939,4.199,0.083,0.038,0.000,0.160,0.000,-0.001,25.151
949,4.201,0.077,0.038,0.000,0.161,0.000,0.001,25.122
959,4.200,0.082,0.038,0.000,0.162,0.000,-0.002,25.096
969,4.200,0.091,0.039,0.000,0.163,0.000,0.002,25.141
979,4.202,0.088,0.039,0.000,0.164,0.000,0.001,25.144
989,4.200,0.101,0.039,0.000,0.165,0.000,-0.003,25.168
999,4.199,0.080,0.039,0.000,0.166,0.000,-0.001,25.152
1009,4.201,0.090,0.040,0.000,0.167,0.000,0.002,25.129
1019,4.201,0.084,0.040,0.000,0.168,0.000,-0.001,25.117
1029,4.199,0.080,0.040,0.000,0.168,0.000,0.001,25.093
1039,4.200,0.084,0.040,0.000,0.169,0.000,0.002,25.073
1049,4.199,0.083,0.041,0.000,0.170,0.000,0.003,25.090
1059,4.200,0.075,0.041,0.000,0.171,0.000,-0.002,25.103
1069,4.199,0.086,0.041,0.000,0.172,0.000,-0.001,25.084
1079,4.201,0.083,0.041,0.000,0.173,0.000,-0.002,25.103
1089,4.199,0.091,0.042,0.000,0.174,0.000,-0.001,25.112
1099,4.200,0.095,0.042,0.000,0.175,0.000,-0.001,25.115
1109,4.201,0.075,0.042,0.000,0.176,0.000,0.002,25.103
1119,4.201,0.073,0.042,0.000,0.177,0.000,0.001,25.117
1129,4.200,0.070,0.042,0.000,0.178,0.000,0.003,25.118
1139,4.175,0.000,0.042,0.000,0.178,0.000,0.000,25.132
1149,4.175,0.000,0.042,0.000,0.178,0.000,0.000,25.122
1159,4.174,0.000,0.042,0.000,0.178,0.000,0.000,25.120
1169,4.174,0.000,0.042,0.000,0.178,0.000,0.000,25.168
1179,4.174,0.000,0.042,0.000,0.178,0.000,0.000,25.116
1189,4.173,0.000,0.042,0.000,0.178,0.000,0.000,25.085
1199,4.173,0.000,0.042,0.000,0.178,0.000,0.000,25.137
1209,4.173,0.000,0.042,0.000,0.178,0.000,0.000,25.097
1219,4.173,0.000,0.042,0.000,0.178,0.000,0.000,25.085
1229,4.173,0.000,0.042,0.000,0.178,0.000,0.000,25.096
1239,4.173,0.000,0.042,0.000,0.178,0.000,0.000,25.097
1249,4.173,0.000,0.042,0.000,0.178,0.000,0.000,25.114
1259,4.173,0.000,0.042,0.000,0.178,0.000,0.000,25.117
1269,4.172,0.000,0.042,0.000,0.178,0.000,0.000,25.085
1279,4.172,0.000,0.042,0.000,0.178,0.000,0.000,25.072
1289,4.172,0.000,0.042,0.000,0.178,0.000,0.000,25.066
1299,4.172,0.000,0.042,0.000,0.178,0.000,0.000,25.101
1309,4.172,0.000,0.042,0.000,0.178,0.000,0.000,25.061
1319,4.172,0.000,0.042,0.000,0.178,0.000,0.000,25.084
1329,4.172,0.000,0.042,0.000,0.178,0.000,0.000,25.099
1339,4.172,0.000,0.042,0.000,0.178,0.000,0.000,25.075
1349,4.172,0.000,0.042,0.000,0.178,0.000,0.000,25.067
1359,4.172,0.000,0.042,0.000,0.178,0.000,0.000,25.040
1369,4.172,0.000,0.042,0.000,0.178,0.000,0.000,25.085
1379,4.172,0.000,0.042,0.000,0.178,0.000,0.000,25.073
1389,4.171,0.000,0.042,0.000,0.178,0.000,0.000,25.100
1399,4.171,0.000,0.042,0.000,0.178,0.000,0.000,25.071
1409,4.171,0.000,0.042,0.000,0.178,0.000,0.000,25.109
1419,4.171,0.000,0.042,0.000,0.178,0.000,0.000,25.069
1429,4.171,0.000,0.042,0.000,0.178,0.000,0.000,25.068
1439,4.171,0.000,0.042,0.000,0.178,0.000,0.000,25.070
1449,4.171,0.000,0.042,0.000,0.178,0.000,0.000,25.084
1459,4.171,0.000,0.042,0.000,0.178,0.000,0.000,25.100
1469,4.171,0.000,0.042,0.000,0.178,0.000,0.000,25.053
1479,4.171,0.000,0.042,0.000,0.178,0.000,0.000,25.082
1489,4.171,0.000,0.042,0.000,0.178,0.000,0.000,25.066
1499,4.171,0.000,0.042,0.000,0.178,0.000,0.000,25.081
1509,4.171,0.000,0.042,0.000,0.178,0.000,0.000,25.074
1519,4.171,0.000,0.042,0.000,0.178,0.000,0.000,25.060
1529,4.171,0.000,0.042,0.000,0.178,0.000,0.000,25.112
1539,4.171,0.000,0.042,0.000,0.178,0.000,0.000,25.047
1549,4.171,0.000,0.042,0.000,0.178,0.000,0.000,25.090
1559,4.171,0.000,0.042,0.000,0.178,0.000,0.000,25.044
1569,4.171,0.000,0.042,0.000,0.178,0.000,0.000,25.093
1579,4.171,0.000,0.042,0.000,0.178,0.000,0.000,25.083
1589,4.171,0.000,0.042,0.000,0.178,0.000,0.000,25.062
1599,4.171,0.000,0.042,0.000,0.178,0.000,0.000,25.050
1609,4.171,0.000,0.042,0.000,0.178,0.000,0.000,25.057
1619,4.171,0.000,0.042,0.000,0.178,0.000,0.000,25.037
1629,4.171,0.000,0.042,0.000,0.178,0.000,0.000,25.084
1639,4.171,0.000,0.042,0.000,0.178,0.000,0.000,25.077
1649,4.171,0.000,0.042,0.000,0.178,0.000,0.000,25.054
1659,4.171,0.000,0.042,0.000,0.178,0.000,0.000,25.042
1669,4.170,0.000,0.042,0.000,0.178,0.000,0.000,25.060
1679,4.170,0.000,0.042,0.000,0.178,0.000,0.000,25.077
1689,4.171,0.000,0.042,0.000,0.178,0.000,0.000,25.030
1699,4.170,0.000,0.042,0.000,0.178,0.000,0.000,25.032
1709,4.170,0.000,0.042,0.000,0.178,0.000,0.000,25.105
1719,4.170,0.000,0.042,0.000,0.178,0.000,0.000,25.030
1729,4.170,0.000,0.042,0.000,0.178,0.000,0.000,25.072
1739,4.170,0.000,0.042,0.000,0.178,0.000,0.000,25.048
1749,4.170,0.000,0.042,0.000,0.178,0.000,0.000,25.100
1759,4.170,0.000,0.042,0.000,0.178,0.000,0.000,25.055
1769,4.170,0.000,0.042,0.000,0.178,0.000,0.000,25.030
1779,4.170,0.000,0.042,0.000,0.178,0.000,0.000,25.090
1789,4.170,0.000,0.042,0.000,0.178,0.000,0.000,25.066
1799,4.170,0.000,0.042,0.000,0.178,0.000,0.000,25.021
1809,4.170,0.000,0.042,0.000,0.178,0.000,0.000,25.058
1819,4.170,0.000,0.042,0.000,0.178,0.000,0.000,25.065
1829,4.170,0.000,0.042,0.000,0.178,0.000,0.000,25.076
1839,4.170,0.000,0.042,0.000,0.178,0.000,0.000,25.042
1849,4.170,0.000,0.042,0.000,0.178,0.000,0.000,25.033
1859,4.170,0.000,0.042,0.000,0.178,0.000,0.000,25.109
1869,4.170,0.000,0.042,0.000,0.178,0.000,0.000,25.081
1879,4.170,0.000,0.042,0.000,0.178,0.000,0.000,25.052
1889,4.170,0.000,0.042,0.000,0.178,0.000,0.000,25.084
1899,4.170,0.000,0.042,0.000,0.178,0.000,0.000,25.055
1909,4.170,0.000,0.042,0.000,0.178,0.000,0.000,25.057
1919,4.170,0.000,0.042,0.000,0.178,0.000,0.000,25.057
1929,4.170,0.000,0.042,0.000,0.178,0.000,0.000,25.030
1939,4.170,0.000,0.042,0.000,0.178,0.000,0.000,25.041
1949,4.170,0.000,0.042,0.000,0.178,0.000,0.000,25.057
1959,4.170,0.000,0.042,0.000,0.178,0.000,0.000,25.049
1969,4.170,0.000,0.042,0.000,0.178,0.000,0.000,25.052
1979,4.170,0.000,0.042,0.000,0.178,0.000,0.000,25.072
1989,4.170,0.000,0.042,0.000,0.178,0.000,0.000,25.081
1999,4.170,0.000,0.042,0.000,0.178,0.000,0.000,25.021
2009,4.170,0.000,0.042,0.000,0.178,0.000,0.000,25.058
2019,4.170,0.000,0.042,0.000,0.178,0.000,0.000,25.010
2029,4.170,0.000,0.042,0.000,0.178,0.000,0.000,25.063
2039,4.170,0.000,0.042,0.000,0.178,0.000,0.000,25.000
2049,4.170,0.000,0.042,0.000,0.178,0.000,0.000,25.030
2059,4.170,0.000,0.042,0.000,0.178,0.000,0.000,25.085
2069,4.170,0.000,0.042,0.000,0.178,0.000,0.000,25.068
2079,4.170,0.000,0.042,0.000,0.178,0.000,0.000,25.048
2089,4.170,0.000,0.042,0.000,0.178,0.000,0.000,25.069
2099,4.170,0.000,0.042,0.000,0.178,0.000,0.000,25.021
2109,4.170,0.000,0.042,0.000,0.178,0.000,0.000,25.068
2119,4.170,0.000,0.042,0.000,0.178,0.000,0.000,25.077
2129,4.170,0.000,0.042,0.000,0.178,0.000,0.000,25.057
2139,4.170,0.000,0.042,0.000,0.178,0.000,0.000,25.036
2149,4.170,0.000,0.042,0.000,0.178,0.000,0.000,25.051
2159,4.170,0.000,0.042,0.000,0.178,0.000,0.000,25.043
2169,4.170,0.000,0.042,0.000,0.178,0.000,0.000,25.038
2179,4.170,0.000,0.042,0.000,0.178,0.000,0.000,25.071
2189,4.170,0.000,0.042,0.000,0.178,0.000,0.000,25.101
2199,4.170,0.000,0.042,0.000,0.178,0.000,0.000,25.040
2209,4.170,0.000,0.042,0.000,0.178,0.000,0.000,25.058
2219,4.170,0.000,0.042,0.000,0.178,0.000,0.000,25.077
2229,4.170,0.000,0.042,0.000,0.178,0.000,0.000,25.077
2239,4.170,0.000,0.042,0.000,0.178,0.000,0.000,25.074
2249,4.170,0.000,0.042,0.000,0.178,0.000,0.000,25.096
2259,4.170,0.000,0.042,0.000,0.178,0.000,0.000,25.029
2269,4.170,0.000,0.042,0.000,0.178,0.000,0.000,25.100
2279,4.170,0.000,0.042,0.000,0.178,0.000,0.000,25.016
2289,4.170,0.000,0.042,0.000,0.178,0.000,0.000,25.051
2299,4.170,0.000,0.042,0.000,0.178,0.000,0.000,25.056
2309,4.170,0.000,0.042,0.000,0.178,0.000,0.000,25.043
2319,4.169,0.000,0.042,0.000,0.178,0.000,0.000,25.053
2329,4.170,0.000,0.042,0.000,0.178,0.000,0.000,25.078
2339,4.170,0.000,0.042,0.000,0.178,0.000,0.000,25.056
2349,4.170,0.000,0.042,0.000,0.178,0.000,0.000,25.035
2359,4.170,0.000,0.042,0.000,0.178,0.000,0.000,25.084
2369,4.170,0.000,0.042,0.000,0.178,0.000,0.000,25.035
2379,4.170,0.000,0.042,0.000,0.178,0.000,0.000,25.075
2389,4.170,0.000,0.042,0.000,0.178,0.000,0.000,25.034
2399,4.170,0.000,0.042,0.000,0.178,0.000,0.000,25.028
2409,4.169,0.000,0.042,0.000,0.178,0.000,0.000,25.053
2419,4.169,0.000,0.042,0.000,0.178,0.000,0.000,25.075
2429,4.170,0.000,0.042,0.000,0.178,0.000,0.000,25.042
2439,4.170,0.000,0.042,0.000,0.178,0.000,0.000,25.086
2449,4.169,0.000,0.042,0.000,0.178,0.000,0.000,25.079
2459,4.169,0.000,0.042,0.000,0.178,0.000,0.000,25.059
2469,4.169,0.000,0.042,0.000,0.178,0.000,0.000,25.096
2479,4.169,0.000,0.042,0.000,0.178,0.000,0.000,25.079
2489,4.170,0.000,0.042,0.000,0.178,0.000,0.000,25.115
2499,4.169,0.000,0.042,0.000,0.178,0.000,0.000,25.115
2509,4.169,0.000,0.042,0.000,0.178,0.000,0.000,25.125
2519,4.170,0.000,0.042,0.000,0.178,0.000,0.000,25.126
2529,4.169,0.000,0.042,0.000,0.178,0.000,0.000,25.083
2539,4.169,0.000,0.042,0.000,0.178,0.000,0.000,25.087
2549,4.169,0.000,0.042,0.000,0.178,0.000,0.000,25.094
2559,4.169,0.000,0.042,0.000,0.178,0.000,0.000,25.096
2569,4.169,0.000,0.042,0.000,0.178,0.000,0.000,25.058
2579,4.169,0.000,0.042,0.000,0.178,0.000,0.000,25.069
2589,4.169,0.000,0.042,0.000,0.178,0.000,0.000,25.065
2599,4.169,0.000,0.042,0.000,0.178,0.000,0.000,25.045
2609,4.169,0.000,0.042,0.000,0.178,0.000,0.000,25.002
2619,4.169,0.000,0.042,0.000,0.178,0.000,0.000,25.006
2629,4.169,0.000,0.042,0.000,0.178,0.000,0.000,25.002
2639,4.169,0.000,0.042,0.000,0.178,0.000,0.000,25.017
2649,4.169,0.000,0.042,0.000,0.178,0.000,0.000,25.004
2659,4.169,0.000,0.042,0.000,0.178,0.000,0.000,24.985
2669,4.169,0.000,0.042,0.000,0.178,0.000,0.000,24.993
2679,4.169,0.000,0.042,0.000,0.178,0.000,0.000,25.013
2689,4.169,0.000,0.042,0.000,0.178,0.000,0.000,24.964
2699,4.169,0.000,0.042,0.000,0.178,0.000,0.000,25.024
2709,4.169,0.000,0.042,0.000,0.178,0.000,0.000,25.032
2719,4.169,0.000,0.042,0.000,0.178,0.000,0.000,25.095
2729,4.169,0.000,0.042,0.000,0.178,0.000,0.000,25.160
2739,4.169,0.000,0.042,0.000,0.178,0.000,0.000,25.203
2749,4.169,0.000,0.042,0.000,0.178,0.000,0.000,25.199
2759,4.169,0.000,0.042,0.000,0.178,0.000,0.000,25.256
2769,4.169,0.000,0.042,0.000,0.178,0.000,0.000,25.309
2779,4.169,0.000,0.042,0.000,0.178,0.000,0.000,25.290
2789,4.169,0.000,0.042,0.000,0.178,0.000,0.000,25.373
2799,4.169,0.000,0.042,0.000,0.178,0.000,0.000,25.390
2809,4.169,0.000,0.042,0.000,0.178,0.000,0.000,25.424
2819,4.169,0.000,0.042,0.000,0.178,0.000,0.000,25.457
2829,4.169,0.000,0.042,0.000,0.178,0.000,0.000,25.472
2839,4.169,0.000,0.042,0.000,0.178,0.000,0.000,25.442
2849,4.169,0.000,0.042,0.000,0.178,0.000,0.000,25.476
2859,4.169,0.000,0.042,0.000,0.178,0.000,0.000,25.508
2869,4.169,0.000,0.042,0.000,0.178,0.000,0.000,25.480
2879,4.169,0.000,0.042,0.000,0.178,0.000,0.000,25.429
2889,4.169,0.000,0.042,0.000,0.178,0.000,0.000,25.496
2899,4.169,0.000,0.042,0.000,0.178,0.000,0.000,25.415
2909,4.169,0.000,0.042,0.000,0.178,0.000,0.000,25.429
2919,4.169,0.000,0.042,0.000,0.178,0.000,0.000,25.393
2929,4.169,0.000,0.042,0.000,0.178,0.000,0.000,25.409
2939,4.169,0.000,0.042,0.000,0.178,0.000,0.000,25.426
2949,4.169,0.000,0.042,0.000,0.178,0.000,0.000,25.398
2959,4.169,0.000,0.042,0.000,0.178,0.000,0.000,25.409
2969,4.169,0.000,0.042,0.000,0.178,0.000,0.000,25.351
2979,4.169,0.000,0.042,0.000,0.178,0.000,0.000,25.345
2989,4.169,0.000,0.042,0.000,0.178,0.000,0.000,25.365
2999,4.169,0.000,0.042,0.000,0.178,0.000,0.000,25.378
3009,4.169,0.000,0.042,0.000,0.178,0.000,0.000,25.337
3019,4.169,0.000,0.042,0.000,0.178,0.000,0.000,25.377
3029,4.169,0.000,0.042,0.000,0.178,0.000,0.000,25.334
3039,4.169,0.000,0.042,0.000,0.178,0.000,0.000,25.344
3049,4.169,0.000,0.042,0.000,0.178,0.000,0.000,25.368
3059,4.169,0.000,0.042,0.000,0.178,0.000,0.000,25.344
3069,4.169,0.000,0.042,0.000,0.178,0.000,0.000,25.345
3079,4.169,0.000,0.042,0.000,0.178,0.000,0.000,25.315
3089,4.169,0.000,0.042,0.000,0.178,0.000,0.000,25.336
3099,4.169,0.000,0.042,0.000,0.178,0.000,0.000,25.336
3109,4.169,0.000,0.042,0.000,0.178,0.000,0.000,25.307
3119,4.169,0.000,0.042,0.000,0.178,0.000,0.000,25.330
3129,4.169,0.000,0.042,0.000,0.178,0.000,0.000,25.363
3139,4.169,0.000,0.042,0.000,0.178,0.000,0.000,25.333
3149,4.169,0.000,0.042,0.000,0.178,0.000,0.000,25.385
3159,4.169,0.000,0.042,0.000,0.178,0.000,0.000,25.337
3169,4.169,0.000,0.042,0.000,0.178,0.000,0.000,25.366
3179,4.169,0.000,0.042,0.000,0.178,0.000,0.000,25.383
3189,4.169,0.000,0.042,0.000,0.178,0.000,0.000,25.401
3199,4.169,0.000,0.042,0.000,0.178,0.000,0.000,25.368
3209,4.169,0.000,0.042,0.000,0.178,0.000,0.000,25.380
3219,4.169,0.000,0.042,0.000,0.178,0.000,0.000,25.387
3229,4.169,0.000,0.042,0.000,0.178,0.000,0.000,25.373
3239,4.169,0.000,0.042,0.000,0.178,0.000,0.000,25.333
3249,4.169,0.000,0.042,0.000,0.178,0.000,0.000,25.405
3259,4.169,0.000,0.042,0.000,0.178,0.000,0.000,25.348
3269,4.169,0.000,0.042,0.000,0.178,0.000,0.000,25.383
3279,4.169,0.000,0.042,0.000,0.178,0.000,0.000,25.435
3289,4.169,0.000,0.042,0.000,0.178,0.000,0.000,25.420
3299,4.169,0.000,0.042,0.000,0.178,0.000,0.000,25.393
3309,4.169,0.000,0.042,0.000,0.178,0.000,0.000,25.372
3319,4.169,0.000,0.042,0.000,0.178,0.000,0.000,25.374
3329,4.169,0.000,0.042,0.000,0.178,0.000,0.000,25.420
3339,4.169,0.000,0.042,0.000,0.178,0.000,0.000,25.395
3349,4.169,0.000,0.042,0.000,0.178,0.000,0.000,25.401
3359,4.169,0.000,0.042,0.000,0.178,0.000,0.000,25.382
3369,4.169,0.000,0.042,0.000,0.178,0.000,0.000,25.419
3379,4.169,0.000,0.042,0.000,0.178,0.000,0.000,25.446
3389,4.169,0.000,0.042,0.000,0.178,0.000,0.000,25.464
3399,4.169,0.000,0.042,0.000,0.178,0.000,0.000,25.389
3409,4.169,0.000,0.042,0.000,0.178,0.000,0.000,25.407
3419,4.169,0.000,0.042,0.000,0.178,0.000,0.000,25.392
3429,4.169,0.000,0.042,0.000,0.178,0.000,0.000,25.413
3439,4.169,0.000,0.042,0.000,0.178,0.000,0.000,25.439
3449,4.169,0.000,0.042,0.000,0.178,0.000,0.000,25.418
3459,4.169,0.000,0.042,0.000,0.178,0.000,0.000,25.412
3469,4.169,0.000,0.042,0.000,0.178,0.000,0.000,25.407
3479,4.169,0.000,0.042,0.000,0.178,0.000,0.000,25.428
3489,4.169,0.000,0.042,0.000,0.178,0.000,0.000,25.402
3499,4.169,0.000,0.042,0.000,0.178,0.000,0.000,25.372
3509,4.169,0.000,0.042,0.000,0.178,0.000,0.000,25.435
3519,4.169,0.000,0.042,0.000,0.178,0.000,0.000,25.464
3529,4.169,0.000,0.042,0.000,0.178,0.000,0.000,25.466
3539,4.169,0.000,0.042,0.000,0.178,0.000,0.000,25.414
3549,4.169,0.000,0.042,0.000,0.178,0.000,0.000,25.426
3559,4.169,0.000,0.042,0.000,0.178,0.000,0.000,25.417
3569,4.169,0.000,0.042,0.000,0.178,0.000,0.000,25.429
3579,4.169,0.000,0.042,0.000,0.178,0.000,0.000,25.411
3589,4.169,0.000,0.042,0.000,0.178,0.000,0.000,25.426
3599,4.169,0.000,0.042,0.000,0.178,0.000,0.000,25.428
3609,4.169,0.000,0.042,0.000,0.178,0.000,0.000,25.410
3619,4.169,0.000,0.042,0.000,0.178,0.000,0.000,25.390
3629,4.169,0.000,0.042,0.000,0.178,0.000,0.000,25.419
3639,4.169,0.000,0.042,0.000,0.178,0.000,0.000,25.456
3649,4.169,0.000,0.042,0.000,0.178,0.000,0.000,25.450
3659,4.169,0.000,0.042,0.000,0.178,0.000,0.000,25.419
3669,4.169,0.000,0.042,0.000,0.178,0.000,0.000,25.411
3679,4.169,0.000,0.042,0.000,0.178,0.000,0.000,25.455
3689,4.169,0.000,0.042,0.000,0.178,0.000,0.000,25.416
3699,4.169,0.000,0.042,0.000,0.178,0.000,0.000,25.422
3709,4.169,0.000,0.042,0.000,0.178,0.000,0.000,25.446
3719,4.169,0.000,0.042,0.000,0.178,0.000,0.000,25.438
3729,4.169,0.000,0.042,0.000,0.178,0.000,0.000,25.443
3739,4.169,0.000,0.042,0.000,0.178,0.000,0.000,25.469
3749,4.169,0.000,0.042,0.000,0.178,0.000,0.000,25.445
3759,4.169,0.000,0.042,0.000,0.178,0.000,0.000,25.461
3769,4.169,0.000,0.042,0.000,0.178,0.000,0.000,25.431
3779,4.169,0.000,0.042,0.000,0.178,0.000,0.000,25.409
3789,4.169,0.000,0.042,0.000,0.178,0.000,0.000,25.434
3799,4.169,0.000,0.042,0.000,0.178,0.000,0.000,25.431
3809,4.169,0.000,0.042,0.000,0.178,0.000,0.000,25.434
3819,4.169,0.000,0.042,0.000,0.178,0.000,0.000,25.481
3829,4.169,0.000,0.042,0.000,0.178,0.000,0.000,25.451
3839,4.169,0.000,0.042,0.000,0.178,0.000,0.000,25.433
3849,4.169,0.000,0.042,0.000,0.178,0.000,0.000,25.442
3859,4.169,0.000,0.042,0.000,0.178,0.000,0.000,25.451
3869,4.169,0.000,0.042,0.000,0.178,0.000,0.000,25.414
3879,4.169,0.000,0.042,0.000,0.178,0.000,0.000,25.420
3889,4.169,0.000,0.042,0.000,0.178,0.000,0.000,25.445
3899,4.169,0.000,0.042,0.000,0.178,0.000,0.000,25.440
3909,4.169,0.000,0.042,0.000,0.178,0.000,0.000,25.406
3919,4.169,0.000,0.042,0.000,0.178,0.000,0.000,25.424
3929,4.169,0.000,0.042,0.000,0.178,0.000,0.000,25.408
3939,4.169,0.000,0.042,0.000,0.178,0.000,0.000,25.440
3949,4.169,0.000,0.042,0.000,0.178,0.000,0.000,25.444
3959,4.169,0.000,0.042,0.000,0.178,0.000,0.000,25.453
3969,4.169,0.000,0.042,0.000,0.178,0.000,0.000,25.420
3979,4.169,0.000,0.042,0.000,0.178,0.000,0.000,25.442
3989,4.169,0.000,0.042,0.000,0.178,0.000,0.000,25.418
3999,4.169,0.000,0.042,0.000,0.178,0.000,0.000,25.410
4009,4.169,0.000,0.042,0.000,0.178,0.000,0.000,25.388
4019,4.169,0.000,0.042,0.000,0.178,0.000,0.000,25.446
4029,4.169,0.000,0.042,0.000,0.178,0.000,0.000,25.417
4039,4.169,0.000,0.042,0.000,0.178,0.000,0.000,25.444
4049,4.169,0.000,0.042,0.000,0.178,0.000,0.000,25.396
4059,4.169,0.000,0.042,0.000,0.178,0.000,0.000,25.410
4069,4.169,0.000,0.042,0.000,0.178,0.000,0.000,25.455
4079,4.169,0.000,0.042,0.000,0.178,0.000,0.000,25.439
4089,4.169,0.000,0.042,0.000,0.178,0.000,0.000,25.431
4099,4.169,0.000,0.042,0.000,0.178,0.000,0.000,25.425
4109,4.169,0.000,0.042,0.000,0.178,0.000,0.000,25.438
4119,4.169,0.000,0.042,0.000,0.178,0.000,0.000,25.370
4129,4.169,0.000,0.042,0.000,0.178,0.000,0.000,25.390
4139,4.169,0.000,0.042,0.000,0.178,0.000,0.000,25.413
4149,4.169,0.000,0.042,0.000,0.178,0.000,0.000,25.436
4159,4.169,0.000,0.042,0.000,0.178,0.000,0.000,25.372
4169,4.169,0.000,0.042,0.000,0.178,0.000,0.000,25.391
4179,4.169,0.000,0.042,0.000,0.178,0.000,0.000,25.393
4189,4.169,0.000,0.042,0.000,0.178,0.000,0.000,25.405
4199,4.169,0.000,0.042,0.000,0.178,0.000,0.000,25.437
4209,4.169,0.000,0.042,0.000,0.178,0.000,0.000,25.380
4219,4.169,0.000,0.042,0.000,0.178,0.000,0.000,25.392
4229,4.169,0.000,0.042,0.000,0.178,0.000,0.000,25.388
4239,4.169,0.000,0.042,0.000,0.178,0.000,0.000,25.394
4249,4.169,0.000,0.042,0.000,0.178,0.000,0.000,25.390
4259,4.169,0.000,0.042,0.000,0.178,0.000,0.000,25.372
4269,4.169,0.000,0.042,0.000,0.178,0.000,0.000,25.415
4279,4.169,0.000,0.042,0.000,0.178,0.000,0.000,25.398
4289,4.169,0.000,0.042,0.000,0.178,0.000,0.000,25.362
4299,4.169,0.000,0.042,0.000,0.178,0.000,0.000,25.403
4309,4.169,0.000,0.042,0.000,0.178,0.000,0.000,25.389
4319,4.169,0.000,0.042,0.000,0.178,0.000,0.000,25.420
4329,4.169,0.000,0.042,0.000,0.178,0.000,0.000,25.385
4339,4.169,0.000,0.042,0.000,0.178,0.000,0.000,25.372
4349,4.169,0.000,0.042,0.000,0.178,0.000,0.000,25.385
4359,4.169,0.000,0.042,0.000,0.178,0.000,0.000,25.383
4369,4.169,0.000,0.042,0.000,0.178,0.000,0.000,25.417
4379,4.169,0.000,0.042,0.000,0.178,0.000,0.000,25.391
4389,4.169,0.000,0.042,0.000,0.178,0.000,0.000,25.405
4399,4.169,0.000,0.042,0.000,0.178,0.000,0.000,25.422
4409,4.169,0.000,0.042,0.000,0.178,0.000,0.000,25.385
4419,4.169,0.000,0.042,0.000,0.178,0.000,0.000,25.389
4429,4.169,0.000,0.042,0.000,0.178,0.000,0.000,25.370
4439,4.169,0.000,0.042,0.000,0.178,0.000,0.000,25.369
4449,4.169,0.000,0.042,0.000,0.178,0.000,0.000,25.381
4459,4.169,0.000,0.042,0.000,0.178,0.000,0.000,25.381
4469,4.169,0.000,0.042,0.000,0.178,0.000,0.000,25.354
4479,4.169,0.000,0.042,0.000,0.178,0.000,0.000,25.403
4489,4.169,0.000,0.042,0.000,0.178,0.000,0.000,25.377
4499,4.169,0.000,0.042,0.000,0.178,0.000,0.000,25.372
4509,4.169,0.000,0.042,0.000,0.178,0.000,0.000,25.402
4519,4.169,0.000,0.042,0.000,0.178,0.000,0.000,25.365
4529,4.169,0.000,0.042,0.000,0.178,0.000,0.000,25.373
4539,4.169,0.000,0.042,0.000,0.178,0.000,0.000,25.366
4549,4.169,0.000,0.042,0.000,0.178,0.000,0.000,25.389
4559,4.169,0.000,0.042,0.000,0.178,0.000,0.000,25.344
4569,4.169,0.000,0.042,0.000,0.178,0.000,0.000,25.349
4579,4.169,0.000,0.042,0.000,0.178,0.000,0.000,25.316
4589,4.169,0.000,0.042,0.000,0.178,0.000,0.000,25.375
4599,4.168,0.000,0.042,0.000,0.178,0.000,0.000,25.373
4609,4.169,0.000,0.042,0.000,0.178,0.000,0.000,25.386
4619,4.169,0.000,0.042,0.000,0.178,0.000,0.000,25.359
4629,4.169,0.000,0.042,0.000,0.178,0.000,0.000,25.329
4639,4.169,0.000,0.042,0.000,0.178,0.000,0.000,25.330
4649,4.168,0.000,0.042,0.000,0.178,0.000,0.000,25.324
4659,4.169,0.000,0.042,0.000,0.178,0.000,0.000,25.350
4669,4.169,0.000,0.042,0.000,0.178,0.000,0.000,25.340
4679,4.169,0.000,0.042,0.000,0.178,0.000,0.000,25.336
4689,4.169,0.000,0.042,0.000,0.178,0.000,0.000,25.328
4699,4.169,0.000,0.042,0.000,0.178,0.000,0.000,25.310
4709,4.169,0.000,0.042,0.000,0.178,0.000,0.000,25.330
4719,4.169,0.000,0.042,0.000,0.178,0.000,0.000,25.332
4729,4.169,0.000,0.042,0.000,0.178,0.000,0.000,25.308
4738,2.950,-16.747,0.042,0.033,0.178,0.097,-0.009,25.710
4748,2.877,-16.747,0.042,0.079,0.178,0.233,-0.008,27.107
4758,2.823,-16.748,0.042,0.126,0.178,0.365,-0.006,29.427
4768,2.774,-16.747,0.042,0.172,0.178,0.496,-0.009,31.325
4778,2.670,-16.748,0.042,0.219,0.178,0.622,-0.010,33.896
4788,2.622,-16.749,0.042,0.265,0.178,0.745,-0.010,35.886
4798,2.519,-16.748,0.042,0.312,0.178,0.866,-0.014,38.234
4807,3.847,0.000,0.042,0.317,0.178,0.878,0.010,39.679
4817,3.909,0.000,0.042,0.317,0.178,0.878,0.005,40.443
4827,3.944,0.000,0.042,0.317,0.178,0.878,0.003,40.853
4837,3.969,0.000,0.042,0.317,0.178,0.878,0.002,40.844
4847,3.986,0.000,0.042,0.317,0.178,0.878,0.002,40.503
4857,3.999,0.000,0.042,0.317,0.178,0.878,0.001,40.063
4867,4.008,0.000,0.042,0.317,0.178,0.878,0.001,39.729
4877,4.015,0.000,0.042,0.317,0.178,0.878,0.001,39.343
4887,4.020,0.000,0.042,0.317,0.178,0.878,0.000,38.914
4897,4.024,0.000,0.042,0.317,0.178,0.878,0.000,38.589
4907,4.028,0.000,0.042,0.317,0.178,0.878,0.000,38.192
4917,4.031,0.000,0.042,0.317,0.178,0.878,0.000,37.640
4927,4.033,0.000,0.042,0.317,0.178,0.878,0.000,37.261
4937,4.035,0.000,0.042,0.317,0.178,0.878,0.000,36.759
4947,4.037,0.000,0.042,0.317,0.178,0.878,0.000,36.458
4957,4.038,0.000,0.042,0.317,0.178,0.878,0.000,36.190
4967,4.040,0.000,0.042,0.317,0.178,0.878,0.000,35.698
4977,4.041,0.000,0.042,0.317,0.178,0.878,0.000,35.410
4987,4.042,0.000,0.042,0.317,0.178,0.878,0.000,34.972
4997,4.044,0.000,0.042,0.317,0.178,0.878,0.000,34.704
5007,4.045,0.000,0.042,0.317,0.178,0.878,0.000,34.353
5017,4.046,0.000,0.042,0.317,0.178,0.878,0.000,34.158
5027,4.047,0.000,0.042,0.317,0.178,0.878,0.000,33.928
5037,4.047,0.000,0.042,0.317,0.178,0.878,0.000,33.653
5047,4.048,0.000,0.042,0.317,0.178,0.878,0.000,33.303
5057,4.049,0.000,0.042,0.317,0.178,0.878,0.000,33.143
5067,4.050,0.000,0.042,0.317,0.178,0.878,0.000,32.895
5077,4.050,0.000,0.042,0.317,0.178,0.878,0.000,32.715
5087,4.051,0.000,0.042,0.317,0.178,0.878,0.000,32.347
5097,4.051,0.000,0.042,0.317,0.178,0.878,0.000,32.234
5107,4.051,0.000,0.042,0.317,0.178,0.878,0.000,31.869
5117,4.052,0.000,0.042,0.317,0.178,0.878,0.000,31.838
5127,4.052,0.000,0.042,0.317,0.178,0.878,0.000,31.556
5137,4.052,0.000,0.042,0.317,0.178,0.878,0.000,31.378
5147,4.053,0.000,0.042,0.317,0.178,0.878,0.000,31.291
5157,4.053,0.000,0.042,0.317,0.178,0.878,0.000,31.022
5167,4.053,0.000,0.042,0.317,0.178,0.878,0.000,30.878
5177,4.053,0.000,0.042,0.317,0.178,0.878,0.000,30.700
5187,4.053,0.000,0.042,0.317,0.178,0.878,0.000,30.562
5197,4.053,0.000,0.042,0.317,0.178,0.878,0.000,30.428
5207,4.054,0.000,0.042,0.317,0.178,0.878,0.000,30.191
5217,4.054,0.000,0.042,0.317,0.178,0.878,0.000,30.040
5227,4.054,0.000,0.042,0.317,0.178,0.878,0.000,29.958
5237,4.054,0.000,0.042,0.317,0.178,0.878,0.000,29.880
5247,4.054,0.000,0.042,0.317,0.178,0.878,0.000,29.707
5257,4.054,0.000,0.042,0.317,0.178,0.878,0.000,29.571
5267,4.054,0.000,0.042,0.317,0.178,0.878,0.000,29.468
5277,4.054,0.000,0.042,0.317,0.178,0.878,0.000,29.346
5287,4.054,0.000,0.042,0.317,0.178,0.878,0.000,29.222
5297,4.054,0.000,0.042,0.317,0.178,0.878,0.000,29.110
5307,4.054,0.000,0.042,0.317,0.178,0.878,0.000,28.984
5317,4.054,0.000,0.042,0.317,0.178,0.878,0.000,28.864
5327,4.054,0.000,0.042,0.317,0.178,0.878,0.000,28.743
5337,4.055,0.000,0.042,0.317,0.178,0.878,0.000,28.643
5347,4.055,0.000,0.042,0.317,0.178,0.878,0.000,28.582
5357,4.055,0.000,0.042,0.317,0.178,0.878,0.000,28.448
5367,4.055,0.000,0.042,0.317,0.178,0.878,0.000,28.410
5377,4.055,0.000,0.042,0.317,0.178,0.878,0.000,28.315
5387,4.055,0.000,0.042,0.317,0.178,0.878,0.000,28.188
5397,4.055,0.000,0.042,0.317,0.178,0.878,0.000,28.106
5407,4.055,0.000,0.042,0.317,0.178,0.878,0.000,28.081
5417,4.055,0.000,0.042,0.317,0.178,0.878,0.000,27.977
5427,4.055,0.000,0.042,0.317,0.178,0.878,0.000,27.901
5437,4.055,0.000,0.042,0.317,0.178,0.878,0.000,27.753
5447,4.055,0.000,0.042,0.317,0.178,0.878,0.000,27.728
5457,4.055,0.000,0.042,0.317,0.178,0.878,0.000,27.657
5467,4.055,0.000,0.042,0.317,0.178,0.878,0.000,27.571
5477,4.055,0.000,0.042,0.317,0.178,0.878,0.000,27.505
5487,4.055,0.000,0.042,0.317,0.178,0.878,0.000,27.467
5497,4.055,0.000,0.042,0.317,0.178,0.878,0.000,27.426
5507,4.055,0.000,0.042,0.317,0.178,0.878,0.000,27.363
5517,4.055,0.000,0.042,0.317,0.178,0.878,0.000,27.328
5527,4.055,0.000,0.042,0.317,0.178,0.878,0.000,27.226
5537,4.055,0.000,0.042,0.317,0.178,0.878,0.000,27.205
5547,4.055,0.000,0.042,0.317,0.178,0.878,0.000,27.127
5557,4.055,0.000,0.042,0.317,0.178,0.878,0.000,27.096
5567,4.055,0.000,0.042,0.317,0.178,0.878,0.000,27.000
5577,4.055,0.000,0.042,0.317,0.178,0.878,0.000,27.008
5587,4.055,0.000,0.042,0.317,0.178,0.878,0.000,26.943
5597,4.055,0.000,0.042,0.317,0.178,0.878,0.000,26.885
5607,4.055,0.000,0.042,0.317,0.178,0.878,0.000,26.868
5617,4.055,0.000,0.042,0.317,0.178,0.878,0.000,26.781
5627,4.055,0.000,0.042,0.317,0.178,0.878,0.000,26.743
5637,4.055,0.000,0.042,0.317,0.178,0.878,0.000,26.693
5647,4.055,0.000,0.042,0.317,0.178,0.878,0.000,26.689
5657,4.055,0.000,0.042,0.317,0.178,0.878,0.000,26.588
5667,4.055,0.000,0.042,0.317,0.178,0.878,0.000,26.599
5677,4.055,0.000,0.042,0.317,0.178,0.878,0.000,26.559
5687,4.055,0.000,0.042,0.317,0.178,0.878,0.000,26.514
5697,4.055,0.000,0.042,0.317,0.178,0.878,0.000,26.513
5707,4.055,0.000,0.042,0.317,0.178,0.878,0.000,26.454
5717,4.055,0.000,0.042,0.317,0.178,0.878,0.000,26.423
5727,4.055,0.000,0.042,0.317,0.178,0.878,0.000,26.416
5737,4.055,0.000,0.042,0.317,0.178,0.878,0.000,26.321
5747,4.055,0.000,0.042,0.317,0.178,0.878,0.000,26.321
5757,4.055,0.000,0.042,0.317,0.178,0.878,0.000,26.251
5767,4.055,0.000,0.042,0.317,0.178,0.878,0.000,26.244
5777,4.055,0.000,0.042,0.317,0.178,0.878,0.000,26.199
5787,4.055,0.000,0.042,0.317,0.178,0.878,0.000,26.198
5797,4.055,0.000,0.042,0.317,0.178,0.878,0.000,26.175
5807,4.055,0.000,0.042,0.317,0.178,0.878,0.000,26.153
5817,4.055,0.000,0.042,0.317,0.178,0.878,0.000,26.141
5827,4.056,0.000,0.042,0.317,0.178,0.878,0.000,26.093
5837,4.055,0.000,0.042,0.317,0.178,0.878,0.000,26.078
5847,4.055,0.000,0.042,0.317,0.178,0.878,0.000,25.990
5857,4.055,0.000,0.042,0.317,0.178,0.878,0.000,25.969
5867,4.055,0.000,0.042,0.317,0.178,0.878,0.000,26.022
5877,4.055,0.000,0.042,0.317,0.178,0.878,0.000,25.935
5887,4.056,0.000,0.042,0.317,0.178,0.878,0.000,25.962
5897,4.055,0.000,0.042,0.317,0.178,0.878,0.000,25.915
5907,4.055,0.000,0.042,0.317,0.178,0.878,0.000,25.878
5917,4.056,0.000,0.042,0.317,0.178,0.878,0.000,25.902
5927,4.056,0.000,0.042,0.317,0.178,0.878,0.000,25.861
5937,4.055,0.000,0.042,0.317,0.178,0.878,0.000,25.803
5947,4.055,0.000,0.042,0.317,0.178,0.878,0.000,25.853
5957,4.055,0.000,0.042,0.317,0.178,0.878,0.000,25.801
5967,4.056,0.000,0.042,0.317,0.178,0.878,0.000,25.804
5977,4.055,0.000,0.042,0.317,0.178,0.878,0.000,25.748
5987,4.056,0.000,0.042,0.317,0.178,0.878,0.000,25.731
5997,4.056,0.000,0.042,0.317,0.178,0.878,0.000,25.769
6007,4.055,0.000,0.042,0.317,0.178,0.878,0.000,25.702
6017,4.056,0.000,0.042,0.317,0.178,0.878,0.000,25.687
6027,4.056,0.000,0.042,0.317,0.178,0.878,0.000,25.679
6037,4.055,0.000,0.042,0.317,0.178,0.878,0.000,25.666
6047,4.056,0.000,0.042,0.317,0.178,0.878,0.000,25.632
6057,4.056,0.000,0.042,0.317,0.178,0.878,0.000,25.624
6067,4.056,0.000,0.042,0.317,0.178,0.878,0.000,25.616
6077,4.056,0.000,0.042,0.317,0.178,0.878,0.000,25.599
6087,4.056,0.000,0.042,0.317,0.178,0.878,0.000,25.543
6097,4.056,0.000,0.042,0.317,0.178,0.878,0.000,25.532
6107,4.056,0.000,0.042,0.317,0.178,0.878,0.000,25.542
6117,4.055,0.000,0.042,0.317,0.178,0.878,0.000,25.551
6127,4.056,0.000,0.042,0.317,0.178,0.878,0.000,25.524
6137,4.056,0.000,0.042,0.317,0.178,0.878,0.000,25.549
6147,4.056,0.000,0.042,0.317,0.178,0.878,0.000,25.545
6157,4.056,0.000,0.042,0.317,0.178,0.878,0.000,25.461
6167,4.056,0.000,0.042,0.317,0.178,0.878,0.000,25.479
6177,4.056,0.000,0.042,0.317,0.178,0.878,0.000,25.465
6187,4.056,0.000,0.042,0.317,0.178,0.878,0.000,25.471
6197,4.056,0.000,0.042,0.317,0.178,0.878,0.000,25.458
6207,4.056,0.000,0.042,0.317,0.178,0.878,0.000,25.405
6217,4.056,0.000,0.042,0.317,0.178,0.878,0.000,25.397
6227,4.056,0.000,0.042,0.317,0.178,0.878,0.000,25.454
6237,4.056,0.000,0.042,0.317,0.178,0.878,0.000,25.408
6247,4.056,0.000,0.042,0.317,0.178,0.878,0.000,25.381
6257,4.056,0.000,0.042,0.317,0.178,0.878,0.000,25.391
6267,4.056,0.000,0.042,0.317,0.178,0.878,0.000,25.382
6277,4.056,0.000,0.042,0.317,0.178,0.878,0.000,25.364
6287,4.056,0.000,0.042,0.317,0.178,0.878,0.000,25.332
6297,4.056,0.000,0.042,0.317,0.178,0.878,0.000,25.350
6307,4.056,0.000,0.042,0.317,0.178,0.878,0.000,25.324
6317,4.056,0.000,0.042,0.317,0.178,0.878,0.000,25.321
6327,4.056,0.000,0.042,0.317,0.178,0.878,0.000,25.330
6337,4.056,0.000,0.042,0.317,0.178,0.878,0.000,25.325
6347,4.056,0.000,0.042,0.317,0.178,0.878,0.000,25.298
6357,4.056,0.000,0.042,0.317,0.178,0.878,0.000,25.293
6367,4.056,0.000,0.042,0.317,0.178,0.878,0.000,25.305
6377,4.056,0.000,0.042,0.317,0.178,0.878,0.000,25.318
6387,4.056,0.000,0.042,0.317,0.178,0.878,0.000,25.253
6397,4.056,0.000,0.042,0.317,0.178,0.878,0.000,25.272
6407,4.056,0.000,0.042,0.317,0.178,0.878,0.000,25.282
6417,4.056,0.000,0.042,0.317,0.178,0.878,0.000,25.235
6427,4.056,0.000,0.042,0.317,0.178,0.878,0.000,25.244
6437,4.056,0.000,0.042,0.317,0.178,0.878,0.000,25.246
6447,4.056,0.000,0.042,0.317,0.178,0.878,0.000,25.202
6457,4.056,0.000,0.042,0.317,0.178,0.878,0.000,25.246
6467,4.056,0.000,0.042,0.317,0.178,0.878,0.000,25.175
6477,4.056,0.000,0.042,0.317,0.178,0.878,0.000,25.190
6487,4.056,0.000,0.042,0.317,0.178,0.878,0.000,25.203
6497,4.056,0.000,0.042,0.317,0.178,0.878,0.000,25.184
6507,4.056,0.000,0.042,0.317,0.178,0.878,0.000,25.166
6517,4.056,0.000,0.042,0.317,0.178,0.878,0.000,25.167
6527,4.056,0.000,0.042,0.317,0.178,0.878,0.000,25.179
6537,4.056,0.000,0.042,0.317,0.178,0.878,0.000,25.197
6547,4.056,0.000,0.042,0.317,0.178,0.878,0.000,25.178
6557,4.056,0.000,0.042,0.317,0.178,0.878,0.000,25.119
6567,4.056,0.000,0.042,0.317,0.178,0.878,0.000,25.132
6577,4.056,0.000,0.042,0.317,0.178,0.878,0.000,25.132
6587,4.056,0.000,0.042,0.317,0.178,0.878,0.000,25.148
6597,4.056,0.000,0.042,0.317,0.178,0.878,0.000,25.127
6607,4.056,0.000,0.042,0.317,0.178,0.878,0.000,25.179
6617,4.056,0.000,0.042,0.317,0.178,0.878,0.000,25.128
6627,4.056,0.000,0.042,0.317,0.178,0.878,0.000,25.141
6637,4.056,0.000,0.042,0.317,0.178,0.878,0.000,25.134
6647,4.056,0.000,0.042,0.317,0.178,0.878,0.000,25.124
6657,4.056,0.000,0.042,0.317,0.178,0.878,0.000,25.109
6667,4.056,0.000,0.042,0.317,0.178,0.878,0.000,25.112
6677,4.056,0.000,0.042,0.317,0.178,0.878,0.000,25.134
6687,4.056,0.000,0.042,0.317,0.178,0.878,0.000,25.113
6697,4.056,0.000,0.042,0.317,0.178,0.878,0.000,25.112
6707,4.056,0.000,0.042,0.317,0.178,0.878,0.000,25.104
6717,4.056,0.000,0.042,0.317,0.178,0.878,0.000,25.075
6727,4.056,0.000,0.042,0.317,0.178,0.878,0.000,25.096
6737,4.056,0.000,0.042,0.317,0.178,0.878,0.000,25.087
6747,4.056,0.000,0.042,0.317,0.178,0.878,0.000,25.105
6757,4.056,0.000,0.042,0.317,0.178,0.878,0.000,25.074
6767,4.056,0.000,0.042,0.317,0.178,0.878,0.000,25.099
6777,4.056,0.000,0.042,0.317,0.178,0.878,0.000,25.114
6787,4.056,0.000,0.042,0.317,0.178,0.878,0.000,25.064
6797,4.056,0.000,0.042,0.317,0.178,0.878,0.000,25.074
6807,4.056,0.000,0.042,0.317,0.178,0.878,0.000,25.076
6817,4.056,0.000,0.042,0.317,0.178,0.878,0.000,25.092
6827,4.056,0.000,0.042,0.317,0.178,0.878,0.000,25.052
6837,4.056,0.000,0.042,0.317,0.178,0.878,0.000,25.044
6847,4.056,0.000,0.042,0.317,0.178,0.878,0.000,25.082
6857,4.056,0.000,0.042,0.317,0.178,0.878,0.000,25.033
6867,4.056,0.000,0.042,0.317,0.178,0.878,0.000,25.058
6877,4.056,0.000,0.042,0.317,0.178,0.878,0.000,25.036
6887,4.056,0.000,0.042,0.317,0.178,0.878,0.000,25.044
6897,4.056,0.000,0.042,0.317,0.178,0.878,0.000,25.007
6907,4.056,0.000,0.042,0.317,0.178,0.878,0.000,25.034
6917,4.056,0.000,0.042,0.317,0.178,0.878,0.000,25.013
6927,4.056,0.000,0.042,0.317,0.178,0.878,0.000,25.030
6937,4.056,0.000,0.042,0.317,0.178,0.878,0.000,25.003
6947,4.056,0.000,0.042,0.317,0.178,0.878,0.000,25.050
6957,4.056,0.000,0.042,0.317,0.178,0.878,0.000,25.014
6967,4.056,0.000,0.042,0.317,0.178,0.878,0.000,25.015
6977,4.056,0.000,0.042,0.317,0.178,0.878,0.000,25.012
6987,4.056,0.000,0.042,0.317,0.178,0.878,0.000,25.003
6997,4.056,0.000,0.042,0.317,0.178,0.878,0.000,25.063
7007,4.056,0.000,0.042,0.317,0.178,0.878,0.000,25.013
7017,4.056,0.000,0.042,0.317,0.178,0.878,0.000,25.002
7027,4.056,0.000,0.042,0.317,0.178,0.878,0.000,24.990
7037,4.056,0.000,0.042,0.317,0.178,0.878,0.000,25.045
7047,4.056,0.000,0.042,0.317,0.178,0.878,0.000,24.994
7057,4.056,0.000,0.042,0.317,0.178,0.878,0.000,24.966
7067,4.056,0.000,0.042,0.317,0.178,0.878,0.000,25.012
7077,4.056,0.000,0.042,0.317,0.178,0.878,0.000,25.016
7087,4.056,0.000,0.042,0.317,0.178,0.878,0.000,25.012
7097,4.056,0.000,0.042,0.317,0.178,0.878,0.000,24.957
7107,4.056,0.000,0.042,0.317,0.178,0.878,0.000,24.996
7117,4.056,0.000,0.042,0.317,0.178,0.878,0.000,24.984
7127,4.056,0.000,0.042,0.317,0.178,0.878,0.000,24.973
7137,4.056,0.000,0.042,0.317,0.178,0.878,0.000,24.998
7147,4.056,0.000,0.042,0.317,0.178,0.878,0.000,24.995
7157,4.056,0.000,0.042,0.317,0.178,0.878,0.000,25.018
7167,4.056,0.000,0.042,0.317,0.178,0.878,0.000,24.964
7177,4.056,0.000,0.042,0.317,0.178,0.878,0.000,24.993
7187,4.056,0.000,0.042,0.317,0.178,0.878,0.000,24.976
7197,4.056,0.000,0.042,0.317,0.178,0.878,0.000,24.979
7207,4.056,0.000,0.042,0.317,0.178,0.878,0.000,24.951
7217,4.056,0.000,0.042,0.317,0.178,0.878,0.000,25.022
7227,4.056,0.000,0.042,0.317,0.178,0.878,0.000,24.948
7237,4.056,0.000,0.042,0.317,0.178,0.878,0.000,24.976
7247,4.056,0.000,0.042,0.317,0.178,0.878,0.000,24.936
7257,4.056,0.000,0.042,0.317,0.178,0.878,0.000,25.041
7267,4.056,0.000,0.042,0.317,0.178,0.878,0.000,24.984
7277,4.056,0.000,0.042,0.317,0.178,0.878,0.000,24.953
7287,4.056,0.000,0.042,0.317,0.178,0.878,0.000,24.971
7297,4.056,0.000,0.042,0.317,0.178,0.878,0.000,24.967
7307,4.056,0.000,0.042,0.317,0.178,0.878,0.000,24.995
7317,4.056,0.000,0.042,0.317,0.178,0.878,0.000,24.987
7327,4.056,0.000,0.042,0.317,0.178,0.878,0.000,24.946
7337,4.056,0.000,0.042,0.317,0.178,0.878,0.000,24.976
7347,4.056,0.000,0.042,0.317,0.178,0.878,0.000,24.940
7357,4.056,0.000,0.042,0.317,0.178,0.878,0.000,24.978
7367,4.056,0.000,0.042,0.317,0.178,0.878,0.000,24.986
7377,4.056,0.000,0.042,0.317,0.178,0.878,0.000,24.924
7387,4.056,0.000,0.042,0.317,0.178,0.878,0.000,24.987
7397,4.056,0.000,0.042,0.317,0.178,0.878,0.000,24.962
7407,4.056,0.000,0.042,0.317,0.178,0.878,0.000,24.895
7417,4.056,0.000,0.042,0.317,0.178,0.878,0.000,24.922
7427,4.056,0.000,0.042,0.317,0.178,0.878,0.000,24.951
7437,4.056,0.000,0.042,0.317,0.178,0.878,0.000,24.947
7447,4.056,0.000,0.042,0.317,0.178,0.878,0.000,24.962
7457,4.056,0.000,0.042,0.317,0.178,0.878,0.000,24.926
7467,4.056,0.000,0.042,0.317,0.178,0.878,0.000,24.963
7477,4.056,0.000,0.042,0.317,0.178,0.878,0.000,24.943
7487,4.056,0.000,0.042,0.317,0.178,0.878,0.000,24.929
7497,4.056,0.000,0.042,0.317,0.178,0.878,0.000,24.940
7507,4.056,0.000,0.042,0.317,0.178,0.878,0.000,24.955
7517,4.056,0.000,0.042,0.317,0.178,0.878,0.000,24.919
7527,4.056,0.000,0.042,0.317,0.178,0.878,0.000,24.964
7537,4.056,0.000,0.042,0.317,0.178,0.878,0.000,24.950
7547,4.056,0.000,0.042,0.317,0.178,0.878,0.000,24.910
7557,4.056,0.000,0.042,0.317,0.178,0.878,0.000,24.913
7567,4.056,0.000,0.042,0.317,0.178,0.878,0.000,24.958
7577,4.056,0.000,0.042,0.317,0.178,0.878,0.000,24.944
7587,4.056,0.000,0.042,0.317,0.178,0.878,0.000,24.935
7597,4.056,0.000,0.042,0.317,0.178,0.878,0.000,24.928
7607,4.056,0.000,0.042,0.317,0.178,0.878,0.000,24.975
7617,4.056,0.000,0.042,0.317,0.178,0.878,0.000,24.960
7627,4.056,0.000,0.042,0.317,0.178,0.878,0.000,24.967
7637,4.056,0.000,0.042,0.317,0.178,0.878,0.000,24.914
7647,4.056,0.000,0.042,0.317,0.178,0.878,0.000,24.974
7657,4.056,0.000,0.042,0.317,0.178,0.878,0.000,24.957
7667,4.056,0.000,0.042,0.317,0.178,0.878,0.000,24.926
7677,4.056,0.000,0.042,0.317,0.178,0.878,0.000,24.898
7687,4.056,0.000,0.042,0.317,0.178,0.878,0.000,24.926
7697,4.056,0.000,0.042,0.317,0.178,0.878,0.000,24.926
7707,4.056,0.000,0.042,0.317,0.178,0.878,0.000,24.962
7717,4.056,0.000,0.042,0.317,0.178,0.878,0.000,24.960
7727,4.056,0.000,0.042,0.317,0.178,0.878,0.000,24.935
7737,4.056,0.000,0.042,0.317,0.178,0.878,0.000,24.945
7747,4.056,0.000,0.042,0.317,0.178,0.878,0.000,24.945
7757,4.056,0.000,0.042,0.317,0.178,0.878,0.000,24.945
7767,4.056,0.000,0.042,0.317,0.178,0.878,0.000,24.961
7777,4.056,0.000,0.042,0.317,0.178,0.878,0.000,24.934
7787,4.056,0.000,0.042,0.317,0.178,0.878,0.000,24.987
7797,4.056,0.000,0.042,0.317,0.178,0.878,0.000,24.971
7807,4.056,0.000,0.042,0.317,0.178,0.878,0.000,24.944
7817,4.056,0.000,0.042,0.317,0.178,0.878,0.000,24.980
7827,4.056,0.000,0.042,0.317,0.178,0.878,0.000,24.940
7837,4.056,0.000,0.042,0.317,0.178,0.878,0.000,24.962
7847,4.056,0.000,0.042,0.317,0.178,0.878,0.000,24.957
7857,4.056,0.000,0.042,0.317,0.178,0.878,0.000,24.950
7867,4.056,0.000,0.042,0.317,0.178,0.878,0.000,24.919
7877,4.056,0.000,0.042,0.317,0.178,0.878,0.000,24.928
7887,4.056,0.000,0.042,0.317,0.178,0.878,0.000,24.938
7897,4.056,0.000,0.042,0.317,0.178,0.878,0.000,24.928
7907,4.056,0.000,0.042,0.317,0.178,0.878,0.000,24.930
7917,4.056,0.000,0.042,0.317,0.178,0.878,0.000,24.944
7927,4.056,0.000,0.042,0.317,0.178,0.878,0.000,24.935
7937,4.056,0.000,0.042,0.317,0.178,0.878,0.000,24.981
7947,4.056,0.000,0.042,0.317,0.178,0.878,0.000,24.922
7957,4.056,0.000,0.042,0.317,0.178,0.878,0.000,24.954
7967,4.056,0.000,0.042,0.317,0.178,0.878,0.000,24.932
7977,4.056,0.000,0.042,0.317,0.178,0.878,0.000,24.951
7987,4.056,0.000,0.042,0.317,0.178,0.878,0.000,24.961
7997,4.056,0.000,0.042,0.317,0.178,0.878,0.000,24.943
8007,4.056,0.000,0.042,0.317,0.178,0.878,0.000,24.949
8017,4.056,0.000,0.042,0.317,0.178,0.878,0.000,24.985
8027,4.056,0.000,0.042,0.317,0.178,0.878,0.000,25.003
8037,4.056,0.000,0.042,0.317,0.178,0.878,0.000,24.925
8047,4.056,0.000,0.042,0.317,0.178,0.878,0.000,24.929
8057,4.056,0.000,0.042,0.317,0.178,0.878,0.000,24.960
8067,4.056,0.000,0.042,0.317,0.178,0.878,0.000,24.982
8077,4.056,0.000,0.042,0.317,0.178,0.878,0.000,24.921
8087,4.056,0.000,0.042,0.317,0.178,0.878,0.000,24.954
8097,4.056,0.000,0.042,0.317,0.178,0.878,0.000,24.981
8107,4.056,0.000,0.042,0.317,0.178,0.878,0.000,24.936
8117,4.056,0.000,0.042,0.317,0.178,0.878,0.000,24.938
8127,4.056,0.000,0.042,0.317,0.178,0.878,0.000,24.952
8137,4.056,0.000,0.042,0.317,0.178,0.878,0.000,24.945
8147,4.056,0.000,0.042,0.317,0.178,0.878,0.000,24.933
8157,4.056,0.000,0.042,0.317,0.178,0.878,0.000,24.965
8167,4.056,0.000,0.042,0.317,0.178,0.878,0.000,24.930
8177,4.056,0.000,0.042,0.317,0.178,0.878,0.000,24.943
8187,4.056,0.000,0.042,0.317,0.178,0.878,0.000,24.979
8197,4.056,0.000,0.042,0.317,0.178,0.878,0.000,24.962
8207,4.056,0.000,0.042,0.317,0.178,0.878,0.000,24.906
8217,4.056,0.000,0.042,0.317,0.178,0.878,0.000,24.937
8227,4.056,0.000,0.042,0.317,0.178,0.878,0.000,24.961
8237,4.056,0.000,0.042,0.317,0.178,0.878,0.000,24.964
8247,4.056,0.000,0.042,0.317,0.178,0.878,0.000,24.936
8257,4.056,0.000,0.042,0.317,0.178,0.878,0.000,24.913
8267,4.056,0.000,0.042,0.317,0.178,0.878,0.000,24.992
8277,4.056,0.000,0.042,0.317,0.178,0.878,0.000,24.932
8287,4.056,0.000,0.042,0.317,0.178,0.878,0.000,24.947
8297,4.056,0.000,0.042,0.317,0.178,0.878,0.000,24.941
8307,4.056,0.000,0.042,0.317,0.178,0.878,0.000,24.969
8317,4.056,0.000,0.042,0.317,0.178,0.878,0.000,24.980
8327,4.056,0.000,0.042,0.317,0.178,0.878,0.000,24.971
8337,4.056,0.000,0.042,0.317,0.178,0.878,0.000,24.940
8347,4.056,0.000,0.042,0.317,0.178,0.878,0.000,24.929
8357,4.056,0.000,0.042,0.317,0.178,0.878,0.000,24.918
8367,4.056,0.000,0.042,0.317,0.178,0.878,0.000,24.940
8377,4.056,0.000,0.042,0.317,0.178,0.878,0.000,24.998
8387,4.056,0.000,0.042,0.317,0.178,0.878,0.000,24.985
8397,4.056,0.000,0.042,0.317,0.178,0.878,0.000,24.951
8399,4.056,0.000,0.042,0.317,0.178,0.878,0.000,24.963