File: data/T25/5C/4.csv
time_s,voltage_v,current_a,chargecapacity_ah,dischargecapacity_ah,charge_energy_wh,discharge_energy_wh,voltagedot_v_per_s,temp_degc
1,3.499,0.000,0.000,0.000,0.000,0.000,0.000,24.709
19,3.499,0.000,0.000,0.000,0.000,0.000,0.000,24.702
37,3.500,0.000,0.000,0.000,0.000,0.000,0.000,24.689
55,3.500,0.000,0.000,0.000,0.000,0.000,0.000,24.717
72,3.617,1.625,0.005,0.000,0.020,0.000,0.001,24.744
90,3.629,1.625,0.014,0.000,0.049,0.000,0.001,24.732
108,3.636,1.625,0.022,0.000,0.079,0.000,0.000,24.809
126,3.641,1.625,0.030,0.000,0.108,0.000,0.000,24.800
144,3.645,1.625,0.038,0.000,0.138,0.000,0.000,24.878
162,3.648,1.625,0.046,0.000,0.167,0.000,0.000,24.882
180,3.651,1.625,0.054,0.000,0.197,0.000,0.000,24.973
198,3.653,1.625,0.062,0.000,0.227,0.000,0.000,24.967
216,3.655,1.625,0.070,0.000,0.256,0.000,0.000,24.999
234,3.657,1.625,0.079,0.000,0.286,0.000,0.000,25.031
252,3.659,1.625,0.087,0.000,0.316,0.000,0.000,25.057
270,3.661,1.625,0.095,0.000,0.346,0.000,0.000,25.099
288,3.663,1.625,0.103,0.000,0.375,0.000,0.000,25.137
306,3.664,1.625,0.111,0.000,0.405,0.000,0.000,25.240
324,3.666,1.625,0.119,0.000,0.435,0.000,0.000,25.225
342,3.668,1.625,0.127,0.000,0.465,0.000,0.000,25.284
360,3.669,1.625,0.135,0.000,0.494,0.000,0.000,25.317
378,3.671,1.625,0.144,0.000,0.524,0.000,0.000,25.281
396,3.672,1.625,0.152,0.000,0.554,0.000,0.000,25.364
414,3.674,1.625,0.160,0.000,0.584,0.000,0.000,25.352
432,3.676,1.625,0.168,0.000,0.614,0.000,0.000,25.405
450,3.677,1.625,0.176,0.000,0.644,0.000,0.000,25.468
468,3.679,1.625,0.184,0.000,0.674,0.000,0.000,25.492
486,3.681,1.625,0.192,0.000,0.704,0.000,0.000,25.507
504,3.682,1.625,0.200,0.000,0.733,0.000,0.000,25.526
522,3.684,1.625,0.209,0.000,0.763,0.000,0.000,25.570
540,3.686,1.625,0.217,0.000,0.793,0.000,0.000,25.563
558,3.687,1.625,0.225,0.000,0.823,0.000,0.000,25.619
576,3.689,1.625,0.233,0.000,0.853,0.000,0.000,25.645
594,3.691,1.625,0.241,0.000,0.883,0.000,0.000,25.707
612,3.692,1.625,0.249,0.000,0.913,0.000,0.000,25.692
630,3.694,1.625,0.257,0.000,0.943,0.000,0.000,25.748
648,3.696,1.625,0.265,0.000,0.973,0.000,0.000,25.777
666,3.697,1.625,0.274,0.000,1.003,0.000,0.000,25.784
684,3.699,1.625,0.282,0.000,1.033,0.000,0.000,25.790
702,3.701,1.625,0.290,0.000,1.063,0.000,0.000,25.808
720,3.702,1.625,0.298,0.000,1.093,0.000,0.000,25.835
738,3.704,1.625,0.306,0.000,1.124,0.000,0.000,25.841
756,3.706,1.625,0.314,0.000,1.154,0.000,0.000,25.846
774,3.707,1.625,0.322,0.000,1.184,0.000,0.000,25.899
792,3.709,1.625,0.330,0.000,1.214,0.000,0.000,25.875
810,3.711,1.625,0.339,0.000,1.244,0.000,0.000,25.897
828,3.713,1.625,0.347,0.000,1.274,0.000,0.000,25.938
846,3.714,1.625,0.355,0.000,1.304,0.000,0.000,25.970
864,3.716,1.625,0.363,0.000,1.335,0.000,0.000,25.992
882,3.718,1.625,0.371,0.000,1.365,0.000,0.000,26.017
900,3.719,1.625,0.379,0.000,1.395,0.000,0.000,26.031
918,3.721,1.625,0.387,0.000,1.425,0.000,0.000,25.983
936,3.723,1.625,0.395,0.000,1.456,0.000,0.000,26.036
954,3.724,1.625,0.404,0.000,1.486,0.000,0.000,26.078
972,3.726,1.625,0.412,0.000,1.516,0.000,0.000,26.080
990,3.728,1.625,0.420,0.000,1.546,0.000,0.000,26.105
1008,3.729,1.625,0.428,0.000,1.577,0.000,0.000,26.095
1026,3.731,1.625,0.436,0.000,1.607,0.000,0.000,26.132
1044,3.733,1.625,0.444,0.000,1.637,0.000,0.000,26.097
1062,3.734,1.625,0.452,0.000,1.668,0.000,0.000,26.168
1080,3.736,1.625,0.460,0.000,1.698,0.000,0.000,26.171
1098,3.737,1.625,0.469,0.000,1.728,0.000,0.000,26.150
1116,3.739,1.625,0.477,0.000,1.759,0.000,0.000,26.193
1134,3.740,1.625,0.485,0.000,1.789,0.000,0.000,26.207
1152,3.742,1.625,0.493,0.000,1.819,0.000,0.000,26.210
1170,3.744,1.625,0.501,0.000,1.850,0.000,0.000,26.208
1188,3.745,1.625,0.509,0.000,1.880,0.000,0.000,26.223
1206,3.747,1.625,0.517,0.000,1.911,0.000,0.000,26.221
1224,3.748,1.625,0.525,0.000,1.941,0.000,0.000,26.272
1242,3.750,1.625,0.534,0.000,1.972,0.000,0.000,26.252
1260,3.751,1.625,0.542,0.000,2.002,0.000,0.000,26.261
1278,3.753,1.625,0.550,0.000,2.033,0.000,0.000,26.302
1296,3.754,1.625,0.558,0.000,2.063,0.000,0.000,26.250
1314,3.756,1.625,0.566,0.000,2.094,0.000,0.000,26.296
1332,3.757,1.625,0.574,0.000,2.124,0.000,0.000,26.302
1350,3.759,1.625,0.582,0.000,2.155,0.000,0.000,26.273
1368,3.760,1.625,0.591,0.000,2.185,0.000,0.000,26.333
1386,3.762,1.625,0.599,0.000,2.216,0.000,0.000,26.301
1404,3.764,1.625,0.607,0.000,2.246,0.000,0.000,26.349
1422,3.765,1.625,0.615,0.000,2.277,0.000,0.000,26.358
1440,3.767,1.625,0.623,0.000,2.308,0.000,0.000,26.358
1458,3.768,1.625,0.631,0.000,2.338,0.000,0.000,26.354
1476,3.770,1.625,0.639,0.000,2.369,0.000,0.000,26.358
1494,3.771,1.625,0.647,0.000,2.400,0.000,0.000,26.368
1512,3.773,1.625,0.656,0.000,2.430,0.000,0.000,26.327
1530,3.774,1.625,0.664,0.000,2.461,0.000,0.000,26.390
1548,3.776,1.625,0.672,0.000,2.492,0.000,0.000,26.366
1566,3.778,1.625,0.680,0.000,2.522,0.000,0.000,26.354
1584,3.779,1.625,0.688,0.000,2.553,0.000,0.000,26.401
1602,3.781,1.625,0.696,0.000,2.584,0.000,0.000,26.416
1620,3.783,1.625,0.704,0.000,2.614,0.000,0.000,26.410
1638,3.784,1.625,0.712,0.000,2.645,0.000,0.000,26.423
1656,3.786,1.625,0.721,0.000,2.676,0.000,0.000,26.361
1674,3.787,1.625,0.729,0.000,2.707,0.000,0.000,26.380
1692,3.789,1.625,0.737,0.000,2.737,0.000,0.000,26.433
1710,3.791,1.625,0.745,0.000,2.768,0.000,0.000,26.415
1728,3.792,1.625,0.753,0.000,2.799,0.000,0.000,26.447
1746,3.794,1.625,0.761,0.000,2.830,0.000,0.000,26.436
1764,3.796,1.625,0.769,0.000,2.861,0.000,0.000,26.410
1782,3.797,1.625,0.777,0.000,2.892,0.000,0.000,26.418
1800,3.799,1.625,0.786,0.000,2.922,0.000,0.000,26.433
1818,3.801,1.625,0.794,0.000,2.953,0.000,0.000,26.406
1836,3.803,1.625,0.802,0.000,2.984,0.000,0.000,26.446
1854,3.804,1.625,0.810,0.000,3.015,0.000,0.000,26.441
1872,3.806,1.625,0.818,0.000,3.046,0.000,0.000,26.491
1890,3.808,1.625,0.826,0.000,3.077,0.000,0.000,26.451
1908,3.810,1.625,0.834,0.000,3.108,0.000,0.000,26.452
1926,3.812,1.625,0.842,0.000,3.139,0.000,0.000,26.437
1944,3.813,1.625,0.851,0.000,3.170,0.000,0.000,26.472
1962,3.815,1.625,0.859,0.000,3.201,0.000,0.000,26.421
1980,3.817,1.625,0.867,0.000,3.232,0.000,0.000,26.491
1998,3.819,1.625,0.875,0.000,3.263,0.000,0.000,26.455
2016,3.821,1.625,0.883,0.000,3.294,0.000,0.000,26.470
2034,3.823,1.625,0.891,0.000,3.325,0.000,0.000,26.484
2052,3.824,1.625,0.899,0.000,3.356,0.000,0.000,26.467
2070,3.826,1.625,0.907,0.000,3.387,0.000,0.000,26.488
2088,3.828,1.625,0.916,0.000,3.418,0.000,0.000,26.446
2106,3.830,1.625,0.924,0.000,3.449,0.000,0.000,26.458
2124,3.832,1.625,0.932,0.000,3.480,0.000,0.000,26.504
2142,3.834,1.625,0.940,0.000,3.512,0.000,0.000,26.489
2160,3.836,1.625,0.948,0.000,3.543,0.000,0.000,26.486
2178,3.839,1.625,0.956,0.000,3.574,0.000,0.000,26.447
2196,3.840,1.625,0.964,0.000,3.605,0.000,0.000,26.489
2214,3.842,1.625,0.972,0.000,3.636,0.000,0.000,26.518
2232,3.845,1.625,0.981,0.000,3.668,0.000,0.000,26.559
2250,3.847,1.625,0.989,0.000,3.699,0.000,0.000,26.522
2268,3.849,1.625,0.997,0.000,3.730,0.000,0.000,26.507
2286,3.851,1.625,1.005,0.000,3.761,0.000,0.000,26.509
2304,3.853,1.625,1.013,0.000,3.793,0.000,0.000,26.523
2322,3.855,1.625,1.021,0.000,3.824,0.000,0.000,26.527
2340,3.857,1.625,1.029,0.000,3.855,0.000,0.000,26.511
2358,3.859,1.625,1.037,0.000,3.887,0.000,0.000,26.540
2376,3.862,1.625,1.046,0.000,3.918,0.000,0.000,26.510
2394,3.864,1.625,1.054,0.000,3.950,0.000,0.000,26.495
2412,3.866,1.625,1.062,0.000,3.981,0.000,0.000,26.552
2430,3.868,1.625,1.070,0.000,4.012,0.000,0.000,26.506
2448,3.871,1.625,1.078,0.000,4.044,0.000,0.000,26.497
2466,3.873,1.625,1.086,0.000,4.075,0.000,0.000,26.515
2484,3.875,1.625,1.094,0.000,4.107,0.000,0.000,26.519
2502,3.878,1.625,1.102,0.000,4.138,0.000,0.000,26.503
2520,3.880,1.625,1.111,0.000,4.170,0.000,0.000,26.554
2538,3.882,1.625,1.119,0.000,4.201,0.000,0.000,26.532
2556,3.884,1.625,1.127,0.000,4.233,0.000,0.000,26.540
2574,3.887,1.625,1.135,0.000,4.264,0.000,0.000,26.538
2592,3.889,1.625,1.143,0.000,4.296,0.000,0.000,26.547
2610,3.891,1.625,1.151,0.000,4.328,0.000,0.000,26.526
2628,3.894,1.625,1.159,0.000,4.359,0.000,0.000,26.572
2646,3.896,1.625,1.167,0.000,4.391,0.000,0.000,26.532
2664,3.899,1.625,1.176,0.000,4.423,0.000,0.000,26.539
2682,3.901,1.625,1.184,0.000,4.454,0.000,0.000,26.541
2700,3.904,1.625,1.192,0.000,4.486,0.000,0.000,26.559
2718,3.906,1.625,1.200,0.000,4.518,0.000,0.000,26.536
2736,3.908,1.625,1.208,0.000,4.549,0.000,0.000,26.515
2754,3.911,1.625,1.216,0.000,4.581,0.000,0.000,26.539
2772,3.913,1.625,1.224,0.000,4.613,0.000,0.000,26.541
2790,3.916,1.625,1.232,0.000,4.645,0.000,0.000,26.579
2808,3.918,1.625,1.241,0.000,4.677,0.000,0.000,26.603
2826,3.921,1.625,1.249,0.000,4.709,0.000,0.000,26.512
2844,3.923,1.625,1.257,0.000,4.740,0.000,0.000,26.563
2862,3.926,1.625,1.265,0.000,4.772,0.000,0.000,26.561
2880,3.928,1.625,1.273,0.000,4.804,0.000,0.000,26.485
2898,3.931,1.625,1.281,0.000,4.836,0.000,0.000,26.552
2916,3.933,1.625,1.289,0.000,4.868,0.000,0.000,26.530
2934,3.936,1.625,1.297,0.000,4.900,0.000,0.000,26.512
2952,3.938,1.625,1.306,0.000,4.932,0.000,0.000,26.530
2970,3.941,1.625,1.314,0.000,4.964,0.000,0.000,26.560
2988,3.943,1.625,1.322,0.000,4.996,0.000,0.000,26.547
3006,3.946,1.625,1.330,0.000,5.028,0.000,0.000,26.547
3024,3.948,1.625,1.338,0.000,5.060,0.000,0.000,26.519
3042,3.951,1.625,1.346,0.000,5.092,0.000,0.000,26.555
3060,3.953,1.625,1.354,0.000,5.124,0.000,0.000,26.491
3078,3.956,1.625,1.362,0.000,5.157,0.000,0.000,26.558
3096,3.958,1.625,1.371,0.000,5.189,0.000,0.000,26.511
3114,3.961,1.625,1.379,0.000,5.221,0.000,0.000,26.500
3132,3.963,1.625,1.387,0.000,5.253,0.000,0.000,26.518
3150,3.966,1.625,1.395,0.000,5.285,0.000,0.000,26.532
3168,3.968,1.625,1.403,0.000,5.318,0.000,0.000,26.490
3186,3.971,1.625,1.411,0.000,5.350,0.000,0.000,26.530
3204,3.973,1.625,1.419,0.000,5.382,0.000,0.000,26.484
3222,3.976,1.625,1.428,0.000,5.414,0.000,0.000,26.511
3240,3.978,1.625,1.436,0.000,5.447,0.000,0.000,26.480
3258,3.980,1.625,1.444,0.000,5.479,0.000,0.000,26.477
3276,3.983,1.625,1.452,0.000,5.511,0.000,0.000,26.510
3294,3.985,1.625,1.460,0.000,5.544,0.000,0.000,26.494
3312,3.988,1.625,1.468,0.000,5.576,0.000,0.000,26.505
3330,3.990,1.625,1.476,0.000,5.609,0.000,0.000,26.453
3348,3.997,1.625,1.484,0.000,5.641,0.000,0.000,26.464
3366,3.999,1.625,1.493,0.000,5.673,0.000,0.000,26.462
3384,4.001,1.625,1.501,0.000,5.706,0.000,0.000,26.510
3402,4.004,1.625,1.509,0.000,5.739,0.000,0.000,26.546
3420,4.006,1.625,1.517,0.000,5.771,0.000,0.000,26.573
3438,4.008,1.625,1.525,0.000,5.804,0.000,0.000,26.570
3456,4.011,1.625,1.533,0.000,5.836,0.000,0.000,26.534
3474,4.013,1.625,1.541,0.000,5.869,0.000,0.000,26.538
3492,4.015,1.625,1.549,0.000,5.901,0.000,0.000,26.480
3510,4.018,1.625,1.558,0.000,5.934,0.000,0.000,26.473
3528,4.020,1.625,1.566,0.000,5.967,0.000,0.000,26.511
3546,4.022,1.625,1.574,0.000,5.999,0.000,0.000,26.509
3564,4.025,1.625,1.582,0.000,6.032,0.000,0.000,26.523
3582,4.027,1.625,1.590,0.000,6.065,0.000,0.000,26.572
3600,4.030,1.625,1.598,0.000,6.098,0.000,0.000,26.601
3618,4.032,1.625,1.606,0.000,6.130,0.000,0.000,26.697
3636,4.034,1.625,1.614,0.000,6.163,0.000,0.000,26.778
3654,4.036,1.625,1.623,0.000,6.196,0.000,0.000,26.884
3672,4.038,1.625,1.631,0.000,6.229,0.000,0.000,26.910
3690,4.041,1.625,1.639,0.000,6.262,0.000,0.000,26.864
3708,4.043,1.625,1.647,0.000,6.294,0.000,0.000,26.839
3726,4.045,1.625,1.655,0.000,6.327,0.000,0.000,26.788
3744,4.047,1.625,1.663,0.000,6.360,0.000,0.000,26.720
3762,4.049,1.625,1.671,0.000,6.393,0.000,0.000,26.688
3780,4.052,1.625,1.679,0.000,6.426,0.000,0.000,26.677
3798,4.054,1.625,1.688,0.000,6.459,0.000,0.000,26.660
3816,4.056,1.625,1.696,0.000,6.492,0.000,0.000,26.642
3834,4.059,1.625,1.704,0.000,6.525,0.000,0.000,26.626
3852,4.061,1.625,1.712,0.000,6.558,0.000,0.000,26.616
3870,4.063,1.625,1.720,0.000,6.591,0.000,0.000,26.617
3888,4.066,1.625,1.728,0.000,6.624,0.000,0.000,26.652
3906,4.068,1.625,1.736,0.000,6.657,0.000,0.000,26.602
3924,4.071,1.625,1.744,0.000,6.690,0.000,0.000,26.578
3942,4.073,1.625,1.753,0.000,6.723,0.000,0.000,26.590
3960,4.076,1.625,1.761,0.000,6.756,0.000,0.000,26.628
3978,4.078,1.625,1.769,0.000,6.789,0.000,0.000,26.621
3996,4.081,1.625,1.777,0.000,6.822,0.000,0.000,26.655
4014,4.083,1.625,1.785,0.000,6.856,0.000,0.000,26.652
4032,4.086,1.625,1.793,0.000,6.889,0.000,0.000,26.639
4050,4.089,1.625,1.801,0.000,6.922,0.000,0.000,26.649
4068,4.091,1.625,1.809,0.000,6.955,0.000,0.000,26.697
4086,4.094,1.625,1.818,0.000,6.988,0.000,0.000,26.695
4104,4.097,1.625,1.826,0.000,7.022,0.000,0.000,26.732
4122,4.099,1.625,1.834,0.000,7.055,0.000,0.000,26.690
4140,4.102,1.625,1.842,0.000,7.088,0.000,0.000,26.721
4158,4.105,1.625,1.850,0.000,7.122,0.000,0.000,26.725
4176,4.108,1.625,1.858,0.000,7.155,0.000,0.000,26.700
4194,4.110,1.625,1.866,0.000,7.188,0.000,0.000,26.731
4212,4.113,1.625,1.874,0.000,7.222,0.000,0.000,26.740
4230,4.116,1.625,1.883,0.000,7.255,0.000,0.000,26.770
4248,4.119,1.625,1.891,0.000,7.289,0.000,0.000,26.803
4266,4.122,1.625,1.899,0.000,7.322,0.000,0.000,26.745
4284,4.124,1.625,1.907,0.000,7.356,0.000,0.000,26.775
4302,4.128,1.625,1.915,0.000,7.389,0.000,0.000,26.809
4320,4.130,1.625,1.923,0.000,7.423,0.000,0.000,26.781
4338,4.134,1.625,1.931,0.000,7.456,0.000,0.000,26.848
4356,4.136,1.625,1.939,0.000,7.490,0.000,0.000,26.823
4374,4.140,1.625,1.948,0.000,7.524,0.000,0.000,26.846
4392,4.142,1.625,1.956,0.000,7.557,0.000,0.000,26.858
4410,4.146,1.625,1.964,0.000,7.591,0.000,0.000,26.900
4428,4.149,1.625,1.972,0.000,7.625,0.000,0.000,26.888
4446,4.152,1.625,1.980,0.000,7.658,0.000,0.000,26.869
4464,4.155,1.625,1.988,0.000,7.692,0.000,0.000,26.888
4482,4.158,1.625,1.996,0.000,7.726,0.000,0.000,26.928
4500,4.161,1.625,2.004,0.000,7.760,0.000,0.000,26.935
4518,4.164,1.625,2.013,0.000,7.794,0.000,0.000,26.922
4536,4.168,1.625,2.021,0.000,7.827,0.000,0.000,26.959
4554,4.171,1.625,2.029,0.000,7.861,0.000,0.000,26.972
4572,4.174,1.625,2.037,0.000,7.895,0.000,0.000,26.935
4590,4.177,1.625,2.045,0.000,7.929,0.000,0.000,26.962
4608,4.181,1.625,2.053,0.000,7.963,0.000,0.000,27.002
4626,4.184,1.625,2.061,0.000,7.997,0.000,0.000,26.985
4644,4.187,1.625,2.069,0.000,8.031,0.000,0.000,27.027
4662,4.191,1.625,2.078,0.000,8.065,0.000,0.000,27.029
4680,4.194,1.625,2.086,0.000,8.099,0.000,0.000,27.071
4698,4.197,1.625,2.094,0.000,8.133,0.000,0.000,27.045
4716,4.200,1.627,2.102,0.000,8.166,0.000,0.000,27.017
4734,4.200,1.576,2.110,0.000,8.200,0.000,0.000,27.033
4752,4.200,1.536,2.118,0.000,8.233,0.000,0.000,27.055
4770,4.200,1.502,2.125,0.000,8.265,0.000,0.000,27.065
4788,4.200,1.470,2.133,0.000,8.296,0.000,0.000,27.069
4806,4.200,1.439,2.140,0.000,8.326,0.000,0.000,27.063
4824,4.200,1.411,2.147,0.000,8.356,0.000,0.000,27.055
4842,4.200,1.384,2.154,0.000,8.386,0.000,0.000,27.049
4860,4.200,1.357,2.161,0.000,8.414,0.000,0.000,27.050
4878,4.200,1.331,2.167,0.000,8.443,0.000,0.000,27.007
4896,4.200,1.307,2.174,0.000,8.470,0.000,0.000,27.015
4914,4.200,1.284,2.181,0.000,8.497,0.000,0.000,27.012
4932,4.200,1.261,2.187,0.000,8.524,0.000,0.000,26.942
4950,4.200,1.237,2.193,0.000,8.550,0.000,0.000,26.974
4968,4.200,1.214,2.199,0.000,8.576,0.000,0.000,26.892
4986,4.200,1.191,2.205,0.000,8.601,0.000,0.000,26.896
5004,4.200,1.171,2.211,0.000,8.626,0.000,0.000,26.908
5022,4.200,1.151,2.217,0.000,8.651,0.000,0.000,26.906
5040,4.200,1.131,2.223,0.000,8.674,0.000,0.000,26.833
5058,4.200,1.111,2.228,0.000,8.698,0.000,0.000,26.844
5076,4.200,1.093,2.234,0.000,8.721,0.000,0.000,26.811
5094,4.200,1.075,2.239,0.000,8.744,0.000,0.000,26.795
5112,4.200,1.058,2.245,0.000,8.766,0.000,0.000,26.742
5130,4.200,1.040,2.250,0.000,8.788,0.000,0.000,26.727
5148,4.200,1.024,2.255,0.000,8.810,0.000,0.000,26.720
5166,4.200,1.007,2.260,0.000,8.831,0.000,0.000,26.675
5184,4.200,0.992,2.265,0.000,8.852,0.000,0.000,26.715
5202,4.200,0.977,2.270,0.000,8.873,0.000,0.000,26.639
5220,4.200,0.962,2.275,0.000,8.893,0.000,0.000,26.659
5238,4.200,0.948,2.280,0.000,8.913,0.000,0.000,26.623
5256,4.200,0.933,2.284,0.000,8.933,0.000,0.000,26.551
5274,4.200,0.919,2.289,0.000,8.953,0.000,0.000,26.588
5292,4.200,0.904,2.293,0.000,8.972,0.000,0.000,26.557
5310,4.200,0.892,2.298,0.000,8.991,0.000,0.000,26.533
5328,4.200,0.878,2.302,0.000,9.009,0.000,0.000,26.500
5346,4.200,0.867,2.307,0.000,9.027,0.000,0.000,26.555
5364,4.200,0.855,2.311,0.000,9.045,0.000,0.000,26.500
5382,4.200,0.843,2.315,0.000,9.063,0.000,0.000,26.436
5400,4.200,0.831,2.319,0.000,9.081,0.000,0.000,26.441
5418,4.200,0.820,2.324,0.000,9.098,0.000,0.000,26.392
5436,4.200,0.809,2.328,0.000,9.115,0.000,0.000,26.368
5454,4.200,0.798,2.332,0.000,9.132,0.000,0.000,26.344
5472,4.200,0.787,2.336,0.000,9.149,0.000,0.000,26.353
5490,4.200,0.778,2.340,0.000,9.165,0.000,0.000,26.301
5508,4.200,0.767,2.343,0.000,9.181,0.000,0.000,26.336
5526,4.200,0.758,2.347,0.000,9.197,0.000,0.000,26.267
5544,4.200,0.749,2.351,0.000,9.213,0.000,0.000,26.270
5562,4.200,0.739,2.355,0.000,9.229,0.000,0.000,26.244
5580,4.200,0.730,2.358,0.000,9.244,0.000,0.000,26.256
5598,4.200,0.722,2.362,0.000,9.260,0.000,0.000,26.213
5616,4.200,0.713,2.366,0.000,9.275,0.000,0.000,26.185
5634,4.200,0.704,2.369,0.000,9.290,0.000,0.000,26.164
5652,4.200,0.696,2.373,0.000,9.304,0.000,0.000,26.163
5670,4.200,0.687,2.376,0.000,9.319,0.000,0.000,26.127
5688,4.200,0.679,2.380,0.000,9.333,0.000,0.000,26.113
5706,4.200,0.671,2.383,0.000,9.347,0.000,0.000,26.082
5724,4.200,0.663,2.386,0.000,9.361,0.000,0.000,26.045
5742,4.200,0.655,2.390,0.000,9.375,0.000,0.000,26.065
5760,4.200,0.647,2.393,0.000,9.389,0.000,0.000,26.017
5778,4.200,0.640,2.396,0.000,9.402,0.000,0.000,26.034
5796,4.200,0.632,2.399,0.000,9.416,0.000,0.000,26.000
5814,4.200,0.625,2.402,0.000,9.429,0.000,0.000,25.997
5832,4.200,0.616,2.405,0.000,9.442,0.000,0.000,25.978
5850,4.200,0.609,2.408,0.000,9.455,0.000,0.000,25.983
5868,4.200,0.602,2.412,0.000,9.467,0.000,0.000,25.899
5886,4.200,0.595,2.415,0.000,9.480,0.000,0.000,25.941
5904,4.200,0.587,2.417,0.000,9.492,0.000,0.000,25.942
5922,4.200,0.581,2.420,0.000,9.505,0.000,0.000,25.844
5940,4.200,0.573,2.423,0.000,9.517,0.000,0.000,25.881
5958,4.200,0.565,2.426,0.000,9.529,0.000,0.000,25.846
5976,4.200,0.559,2.429,0.000,9.541,0.000,0.000,25.821
5994,4.200,0.552,2.432,0.000,9.552,0.000,0.000,25.876
6012,4.200,0.545,2.434,0.000,9.564,0.000,0.000,25.860
6030,4.200,0.538,2.437,0.000,9.575,0.000,0.000,25.866
6048,4.200,0.531,2.440,0.000,9.586,0.000,0.000,25.811
6066,4.200,0.524,2.442,0.000,9.597,0.000,0.000,25.797
6084,4.200,0.517,2.445,0.000,9.608,0.000,0.000,25.766
6102,4.200,0.511,2.448,0.000,9.619,0.000,0.000,25.746
6120,4.200,0.505,2.450,0.000,9.630,0.000,0.000,25.759
6138,4.200,0.498,2.453,0.000,9.640,0.000,0.000,25.746
6156,4.200,0.492,2.455,0.000,9.651,0.000,0.000,25.770
6174,4.200,0.485,2.458,0.000,9.661,0.000,0.000,25.699
6192,4.200,0.479,2.460,0.000,9.671,0.000,0.000,25.705
6210,4.200,0.472,2.462,0.000,9.681,0.000,0.000,25.674
6228,4.200,0.466,2.465,0.000,9.691,0.000,0.000,25.656
6246,4.200,0.460,2.467,0.000,9.701,0.000,0.000,25.650
6264,4.200,0.454,2.469,0.000,9.710,0.000,0.000,25.662
6282,4.200,0.447,2.472,0.000,9.720,0.000,0.000,25.646
6300,4.200,0.441,2.474,0.000,9.729,0.000,0.000,25.637
6318,4.200,0.436,2.476,0.000,9.738,0.000,0.000,25.607
6336,4.200,0.430,2.478,0.000,9.747,0.000,0.000,25.617
6354,4.200,0.424,2.480,0.000,9.756,0.000,0.000,25.632
6372,4.200,0.418,2.482,0.000,9.765,0.000,0.000,25.578
6390,4.200,0.412,2.484,0.000,9.774,0.000,0.000,25.579
6408,4.200,0.407,2.487,0.000,9.782,0.000,0.000,25.557
6426,4.200,0.402,2.489,0.000,9.791,0.000,0.000,25.520
6444,4.200,0.396,2.491,0.000,9.799,0.000,0.000,25.553
6462,4.200,0.391,2.492,0.000,9.807,0.000,0.000,25.519
6480,4.200,0.385,2.494,0.000,9.816,0.000,0.000,25.474
6498,4.200,0.379,2.496,0.000,9.824,0.000,0.000,25.448
6516,4.200,0.373,2.498,0.000,9.832,0.000,0.000,25.501
6534,4.200,0.367,2.500,0.000,9.839,0.000,0.000,25.445
6552,4.200,0.362,2.502,0.000,9.847,0.000,0.000,25.439
6570,4.200,0.358,2.504,0.000,9.855,0.000,0.000,25.437
6588,4.200,0.352,2.505,0.000,9.862,0.000,0.000,25.415
6606,4.200,0.347,2.507,0.000,9.869,0.000,0.000,25.425
6624,4.200,0.342,2.509,0.000,9.877,0.000,0.000,25.400
6642,4.200,0.338,2.511,0.000,9.884,0.000,0.000,25.401
6660,4.200,0.332,2.512,0.000,9.891,0.000,0.000,25.410
6678,4.200,0.328,2.514,0.000,9.898,0.000,0.000,25.406
6696,4.200,0.324,2.516,0.000,9.905,0.000,0.000,25.341
6714,4.200,0.318,2.517,0.000,9.911,0.000,0.000,25.330
6732,4.200,0.314,2.519,0.000,9.918,0.000,0.000,25.345
6750,4.200,0.309,2.520,0.000,9.924,0.000,0.000,25.309
6768,4.200,0.304,2.522,0.000,9.931,0.000,0.000,25.300
6786,4.200,0.300,2.523,0.000,9.937,0.000,0.000,25.305
6804,4.200,0.296,2.525,0.000,9.943,0.000,0.000,25.308
6822,4.200,0.291,2.526,0.000,9.950,0.000,0.000,25.223
6840,4.200,0.287,2.528,0.000,9.956,0.000,0.000,25.261
6858,4.200,0.282,2.529,0.000,9.962,0.000,0.000,25.248
6876,4.200,0.278,2.531,0.000,9.968,0.000,0.000,25.210
6894,4.200,0.273,2.532,0.000,9.973,0.000,0.000,25.257
6912,4.200,0.269,2.533,0.000,9.979,0.000,0.000,25.194
6930,4.200,0.266,2.535,0.000,9.985,0.000,0.000,25.159
6948,4.200,0.261,2.536,0.000,9.990,0.000,0.000,25.218
6966,4.200,0.257,2.537,0.000,9.996,0.000,0.000,25.206
6984,4.200,0.253,2.539,0.000,10.001,0.000,0.000,25.185
7002,4.200,0.250,2.540,0.000,10.006,0.000,0.000,25.168
7020,4.200,0.245,2.541,0.000,10.011,0.000,0.000,25.152
7038,4.200,0.242,2.542,0.000,10.017,0.000,0.000,25.117
7056,4.200,0.238,2.543,0.000,10.022,0.000,0.000,25.147
7074,4.200,0.235,2.545,0.000,10.027,0.000,0.000,25.121
7092,4.200,0.232,2.546,0.000,10.031,0.000,0.000,25.095
7110,4.200,0.227,2.547,0.000,10.036,0.000,0.000,25.082
7128,4.200,0.224,2.548,0.000,10.041,0.000,0.000,25.123
7146,4.200,0.221,2.549,0.000,10.046,0.000,0.000,25.069
7164,4.200,0.217,2.550,0.000,10.050,0.000,0.000,25.112
7182,4.200,0.213,2.551,0.000,10.055,0.000,0.000,25.066
7200,4.200,0.211,2.552,0.000,10.059,0.000,0.000,25.058
7218,4.200,0.207,2.553,0.000,10.064,0.000,0.000,25.028
7236,4.200,0.204,2.555,0.000,10.068,0.000,0.000,25.084
7254,4.200,0.201,2.556,0.000,10.072,0.000,0.000,25.005
7272,4.200,0.198,2.557,0.000,10.076,0.000,0.000,25.067
7290,4.200,0.194,2.557,0.000,10.081,0.000,0.000,25.027
7308,4.200,0.192,2.558,0.000,10.085,0.000,0.000,24.982
7326,4.200,0.188,2.559,0.000,10.089,0.000,0.000,25.021
7344,4.200,0.186,2.560,0.000,10.093,0.000,0.000,24.987
7362,4.200,0.183,2.561,0.000,10.096,0.000,0.000,25.078
7380,4.200,0.181,2.562,0.000,10.100,0.000,0.000,24.995
7398,4.200,0.178,2.563,0.000,10.104,0.000,0.000,24.957
7416,4.200,0.175,2.564,0.000,10.108,0.000,0.000,24.934
7434,4.200,0.172,2.565,0.000,10.111,0.000,0.000,24.920
7452,4.200,0.170,2.566,0.000,10.115,0.000,0.000,24.951
7470,4.200,0.167,2.567,0.000,10.118,0.000,0.000,24.989
7488,4.200,0.164,2.567,0.000,10.122,0.000,0.000,24.936
7506,4.200,0.162,2.568,0.000,10.125,0.000,0.000,24.943
7524,4.200,0.159,2.569,0.000,10.129,0.000,0.000,24.910
7542,4.200,0.157,2.570,0.000,10.132,0.000,0.000,24.924
7560,4.200,0.154,2.571,0.000,10.135,0.000,0.000,24.903
7578,4.200,0.152,2.571,0.000,10.139,0.000,0.000,24.928
7596,4.200,0.150,2.572,0.000,10.142,0.000,0.000,24.949
7614,4.200,0.147,2.573,0.000,10.145,0.000,0.000,24.907
7632,4.200,0.145,2.574,0.000,10.148,0.000,0.000,24.904
7650,4.200,0.143,2.574,0.000,10.151,0.000,0.000,24.877
7668,4.200,0.141,2.575,0.000,10.154,0.000,0.000,24.847
7686,4.200,0.139,2.576,0.000,10.157,0.000,0.000,24.855
7704,4.200,0.136,2.576,0.000,10.160,0.000,0.000,24.815
7722,4.200,0.134,2.577,0.000,10.163,0.000,0.000,24.858
7740,4.200,0.132,2.578,0.000,10.165,0.000,0.000,24.868
7758,4.200,0.131,2.578,0.000,10.168,0.000,0.000,24.834
7776,4.200,0.128,2.579,0.000,10.171,0.000,0.000,24.849
7794,4.200,0.126,2.580,0.000,10.174,0.000,0.000,24.842
7812,4.200,0.125,2.580,0.000,10.176,0.000,0.000,24.827
7830,4.200,0.123,2.581,0.000,10.179,0.000,0.000,24.836
7848,4.200,0.121,2.581,0.000,10.181,0.000,0.000,24.805
7866,4.200,0.119,2.582,0.000,10.184,0.000,0.000,24.827
7884,4.200,0.118,2.583,0.000,10.186,0.000,0.000,24.798
7902,4.200,0.116,2.583,0.000,10.189,0.000,0.000,24.807
7920,4.200,0.114,2.584,0.000,10.191,0.000,0.000,24.791
7938,4.200,0.112,2.584,0.000,10.194,0.000,0.000,24.780
7956,4.200,0.111,2.585,0.000,10.196,0.000,0.000,24.796
7974,4.200,0.109,2.585,0.000,10.198,0.000,0.000,24.772
7992,4.200,0.108,2.586,0.000,10.200,0.000,0.000,24.795
8010,4.200,0.106,2.587,0.000,10.203,0.000,0.000,24.803
8028,4.200,0.104,2.587,0.000,10.205,0.000,0.000,24.759
8046,4.200,0.102,2.588,0.000,10.207,0.000,0.000,24.795
8064,4.200,0.101,2.588,0.000,10.209,0.000,0.000,24.796
8082,4.200,0.100,2.589,0.000,10.211,0.000,0.000,24.782
8100,4.200,0.099,2.589,0.000,10.213,0.000,0.000,24.739
8118,4.200,0.097,2.590,0.000,10.215,0.000,0.000,24.769
8136,4.200,0.095,2.590,0.000,10.217,0.000,0.000,24.743
8154,4.200,0.094,2.591,0.000,10.219,0.000,0.000,24.771
8172,4.200,0.093,2.591,0.000,10.221,0.000,0.000,24.725
8190,4.200,0.091,2.591,0.000,10.223,0.000,0.000,24.775
8208,4.200,0.090,2.592,0.000,10.225,0.000,0.000,24.740
8226,4.200,0.089,2.592,0.000,10.227,0.000,0.000,24.734
8244,4.200,0.088,2.593,0.000,10.229,0.000,0.000,24.693
8262,4.200,0.088,2.593,0.000,10.231,0.000,0.000,24.745
8280,4.200,0.085,2.594,0.000,10.233,0.000,0.000,24.759
8298,4.200,0.084,2.594,0.000,10.234,0.000,0.000,24.754
8316,4.200,0.084,2.595,0.000,10.236,0.000,0.000,24.733
8334,4.200,0.082,2.595,0.000,10.238,0.000,0.000,24.754
8352,4.200,0.081,2.595,0.000,10.240,0.000,0.000,24.716
8370,4.200,0.080,2.596,0.000,10.241,0.000,0.000,24.750
8388,4.200,0.078,2.596,0.000,10.243,0.000,0.000,24.713
8406,4.200,0.077,2.597,0.000,10.245,0.000,0.000,24.716
8424,4.200,0.076,2.597,0.000,10.246,0.000,0.000,24.724
8442,4.200,0.075,2.597,0.000,10.248,0.000,0.000,24.716
8460,4.200,0.074,2.598,0.000,10.249,0.000,0.000,24.704
8478,4.200,0.073,2.598,0.000,10.251,0.000,0.000,24.692
8496,4.200,0.073,2.598,0.000,10.252,0.000,0.000,24.724
8514,4.200,0.071,2.599,0.000,10.254,0.000,0.000,24.714
8532,4.200,0.070,2.599,0.000,10.255,0.000,0.000,24.699
8550,4.200,0.069,2.599,0.000,10.257,0.000,0.000,24.696
8568,4.200,0.068,2.600,0.000,10.258,0.000,0.000,24.686
8586,4.200,0.067,2.600,0.000,10.260,0.000,0.000,24.737
8604,4.200,0.067,2.600,0.000,10.261,0.000,0.000,24.707
8622,4.200,0.066,2.601,0.000,10.263,0.000,0.000,24.686
8639,4.195,0.000,2.601,0.000,10.263,0.000,0.000,24.699
8657,4.194,0.000,2.601,0.000,10.263,0.000,0.000,24.731
8675,4.194,0.000,2.601,0.000,10.263,0.000,0.000,24.685
8693,4.193,0.000,2.601,0.000,10.263,0.000,0.000,24.712
8711,4.193,0.000,2.601,0.000,10.263,0.000,0.000,24.660
8729,4.193,0.000,2.601,0.000,10.263,0.000,0.000,24.695
8747,4.192,0.000,2.601,0.000,10.263,0.000,0.000,24.709
8765,4.192,0.000,2.601,0.000,10.263,0.000,0.000,24.676
8783,4.192,0.000,2.601,0.000,10.263,0.000,0.000,24.717
8801,4.191,0.000,2.601,0.000,10.263,0.000,0.000,24.648
8819,4.191,0.000,2.601,0.000,10.263,0.000,0.000,24.687
8837,4.191,0.000,2.601,0.000,10.263,0.000,0.000,24.658
8855,4.191,0.000,2.601,0.000,10.263,0.000,0.000,24.655
8873,4.191,0.000,2.601,0.000,10.263,0.000,0.000,24.716
8891,4.190,0.000,2.601,0.000,10.263,0.000,0.000,24.679
8909,4.190,0.000,2.601,0.000,10.263,0.000,0.000,24.661
8927,4.190,0.000,2.601,0.000,10.263,0.000,0.000,24.679
8945,4.190,0.000,2.601,0.000,10.263,0.000,0.000,24.658
8963,4.190,0.000,2.601,0.000,10.263,0.000,0.000,24.660
8981,4.189,0.000,2.601,0.000,10.263,0.000,0.000,24.713
8999,4.189,0.000,2.601,0.000,10.263,0.000,0.000,24.664
9017,4.189,0.000,2.601,0.000,10.263,0.000,0.000,24.654
9035,4.189,0.000,2.601,0.000,10.263,0.000,0.000,24.703
9053,4.189,0.000,2.601,0.000,10.263,0.000,0.000,24.618
9071,4.189,0.000,2.601,0.000,10.263,0.000,0.000,24.631
9089,4.189,0.000,2.601,0.000,10.263,0.000,0.000,24.622
9107,4.188,0.000,2.601,0.000,10.263,0.000,0.000,24.655
9125,4.188,0.000,2.601,0.000,10.263,0.000,0.000,24.642
9143,4.188,0.000,2.601,0.000,10.263,0.000,0.000,24.622
9161,4.188,0.000,2.601,0.000,10.263,0.000,0.000,24.674
9179,4.188,0.000,2.601,0.000,10.263,0.000,0.000,24.670
9197,4.188,0.000,2.601,0.000,10.263,0.000,0.000,24.678
9215,4.188,0.000,2.601,0.000,10.263,0.000,0.000,24.642
9233,4.187,0.000,2.601,0.000,10.263,0.000,0.000,24.644
9251,4.187,0.000,2.601,0.000,10.263,0.000,0.000,24.653
9269,4.187,0.000,2.601,0.000,10.263,0.000,0.000,24.644
9287,4.187,0.000,2.601,0.000,10.263,0.000,0.000,24.645
9305,4.187,0.000,2.601,0.000,10.263,0.000,0.000,24.606
9323,4.187,0.000,2.601,0.000,10.263,0.000,0.000,24.699
9341,4.187,0.000,2.601,0.000,10.263,0.000,0.000,24.640
9359,4.187,0.000,2.601,0.000,10.263,0.000,0.000,24.654
9377,4.187,0.000,2.601,0.000,10.263,0.000,0.000,24.661
9395,4.186,0.000,2.601,0.000,10.263,0.000,0.000,24.666
9413,4.186,0.000,2.601,0.000,10.263,0.000,0.000,24.683
9431,4.186,0.000,2.601,0.000,10.263,0.000,0.000,24.641
9449,4.186,0.000,2.601,0.000,10.263,0.000,0.000,24.654
9467,4.186,0.000,2.601,0.000,10.263,0.000,0.000,24.678
9485,4.186,0.000,2.601,0.000,10.263,0.000,0.000,24.636
9503,4.186,0.000,2.601,0.000,10.263,0.000,0.000,24.647
9521,4.186,0.000,2.601,0.000,10.263,0.000,0.000,24.618
9539,4.186,0.000,2.601,0.000,10.263,0.000,0.000,24.682
9557,4.186,0.000,2.601,0.000,10.263,0.000,0.000,24.686
9575,4.185,0.000,2.601,0.000,10.263,0.000,0.000,24.648
9593,4.185,0.000,2.601,0.000,10.263,0.000,0.000,24.636
9611,4.185,0.000,2.601,0.000,10.263,0.000,0.000,24.676
9629,4.185,0.000,2.601,0.000,10.263,0.000,0.000,24.681
9647,4.185,0.000,2.601,0.000,10.263,0.000,0.000,24.670
9665,4.185,0.000,2.601,0.000,10.263,0.000,0.000,24.636
9683,4.185,0.000,2.601,0.000,10.263,0.000,0.000,24.646
9701,4.185,0.000,2.601,0.000,10.263,0.000,0.000,24.683
9719,4.185,0.000,2.601,0.000,10.263,0.000,0.000,24.659
9737,4.185,0.000,2.601,0.000,10.263,0.000,0.000,24.688
9755,4.185,0.000,2.601,0.000,10.263,0.000,0.000,24.670
9773,4.185,0.000,2.601,0.000,10.263,0.000,0.000,24.653
9791,4.184,0.000,2.601,0.000,10.263,0.000,0.000,24.706
9809,4.184,0.000,2.601,0.000,10.263,0.000,0.000,24.682
9827,4.184,0.000,2.601,0.000,10.263,0.000,0.000,24.642
9845,4.184,0.000,2.601,0.000,10.263,0.000,0.000,24.662
9863,4.184,0.000,2.601,0.000,10.263,0.000,0.000,24.698
9881,4.184,0.000,2.601,0.000,10.263,0.000,0.000,24.673
9899,4.184,0.000,2.601,0.000,10.263,0.000,0.000,24.657
9917,4.184,0.000,2.601,0.000,10.263,0.000,0.000,24.656
9935,4.184,0.000,2.601,0.000,10.263,0.000,0.000,24.676
9953,4.184,0.000,2.601,0.000,10.263,0.000,0.000,24.643
9971,4.184,0.000,2.601,0.000,10.263,0.000,0.000,24.697
9989,4.184,0.000,2.601,0.000,10.263,0.000,0.000,24.665
10007,4.184,0.000,2.601,0.000,10.263,0.000,0.000,24.629
10025,4.184,0.000,2.601,0.000,10.263,0.000,0.000,24.661
10043,4.184,0.000,2.601,0.000,10.263,0.000,0.000,24.710
10061,4.184,0.000,2.601,0.000,10.263,0.000,0.000,24.688
10079,4.184,0.000,2.601,0.000,10.263,0.000,0.000,24.671
10097,4.183,0.000,2.601,0.000,10.263,0.000,0.000,24.643
10115,4.183,0.000,2.601,0.000,10.263,0.000,0.000,24.684
10133,4.183,0.000,2.601,0.000,10.263,0.000,0.000,24.695
10151,4.183,0.000,2.601,0.000,10.263,0.000,0.000,24.681
10169,4.183,0.000,2.601,0.000,10.263,0.000,0.000,24.664
10187,4.183,0.000,2.601,0.000,10.263,0.000,0.000,24.693
10205,4.183,0.000,2.601,0.000,10.263,0.000,0.000,24.665
10223,4.183,0.000,2.601,0.000,10.263,0.000,0.000,24.666
10241,4.183,0.000,2.601,0.000,10.263,0.000,0.000,24.704
10259,4.183,0.000,2.601,0.000,10.263,0.000,0.000,24.707
10277,4.183,0.000,2.601,0.000,10.263,0.000,0.000,24.681
10295,4.183,0.000,2.601,0.000,10.263,0.000,0.000,24.677
10313,4.183,0.000,2.601,0.000,10.263,0.000,0.000,24.638
10331,4.183,0.000,2.601,0.000,10.263,0.000,0.000,24.695
10349,4.183,0.000,2.601,0.000,10.263,0.000,0.000,24.677
10367,4.182,0.000,2.601,0.000,10.263,0.000,0.000,24.729
10385,4.182,0.000,2.601,0.000,10.263,0.000,0.000,24.707
10403,4.182,0.000,2.601,0.000,10.263,0.000,0.000,24.706
10421,4.182,0.000,2.601,0.000,10.263,0.000,0.000,24.716
10439,4.182,0.000,2.601,0.000,10.263,0.000,0.000,24.695
10457,4.182,0.000,2.601,0.000,10.263,0.000,0.000,24.701
10475,4.182,0.000,2.601,0.000,10.263,0.000,0.000,24.710
10493,4.182,0.000,2.601,0.000,10.263,0.000,0.000,24.704
10511,4.182,0.000,2.601,0.000,10.263,0.000,0.000,24.696
10529,4.182,0.000,2.601,0.000,10.263,0.000,0.000,24.734
10547,4.182,0.000,2.601,0.000,10.263,0.000,0.000,24.705
10565,4.182,0.000,2.601,0.000,10.263,0.000,0.000,24.733
10583,4.182,0.000,2.601,0.000,10.263,0.000,0.000,24.689
10601,4.182,0.000,2.601,0.000,10.263,0.000,0.000,24.730
10619,4.182,0.000,2.601,0.000,10.263,0.000,0.000,24.673
10637,4.182,0.000,2.601,0.000,10.263,0.000,0.000,24.656
10655,4.182,0.000,2.601,0.000,10.263,0.000,0.000,24.700
10673,4.182,0.000,2.601,0.000,10.263,0.000,0.000,24.747
10691,4.182,0.000,2.601,0.000,10.263,0.000,0.000,24.688
10709,4.182,0.000,2.601,0.000,10.263,0.000,0.000,24.688
10727,4.182,0.000,2.601,0.000,10.263,0.000,0.000,24.699
10745,4.182,0.000,2.601,0.000,10.263,0.000,0.000,24.720
10763,4.182,0.000,2.601,0.000,10.263,0.000,0.000,24.677
10781,4.182,0.000,2.601,0.000,10.263,0.000,0.000,24.706
10799,4.181,0.000,2.601,0.000,10.263,0.000,0.000,24.694
10817,4.181,0.000,2.601,0.000,10.263,0.000,0.000,24.721
10835,4.181,0.000,2.601,0.000,10.263,0.000,0.000,24.686
10853,4.181,0.000,2.601,0.000,10.263,0.000,0.000,24.705
10871,4.181,0.000,2.601,0.000,10.263,0.000,0.000,24.709
10889,4.181,0.000,2.601,0.000,10.263,0.000,0.000,24.713
10907,4.181,0.000,2.601,0.000,10.263,0.000,0.000,24.732
10925,4.181,0.000,2.601,0.000,10.263,0.000,0.000,24.702
10943,4.181,0.000,2.601,0.000,10.263,0.000,0.000,24.705
10961,4.181,0.000,2.601,0.000,10.263,0.000,0.000,24.739
10979,4.181,0.000,2.601,0.000,10.263,0.000,0.000,24.753
10997,4.181,0.000,2.601,0.000,10.263,0.000,0.000,24.737
11015,4.181,0.000,2.601,0.000,10.263,0.000,0.000,24.727
11033,4.181,0.000,2.601,0.000,10.263,0.000,0.000,24.710
11051,4.181,0.000,2.601,0.000,10.263,0.000,0.000,24.698
11069,4.181,0.000,2.601,0.000,10.263,0.000,0.000,24.755
11087,4.181,0.000,2.601,0.000,10.263,0.000,0.000,24.727
11105,4.181,0.000,2.601,0.000,10.263,0.000,0.000,24.747
11123,4.181,0.000,2.601,0.000,10.263,0.000,0.000,24.722
11141,4.181,0.000,2.601,0.000,10.263,0.000,0.000,24.742
11159,4.181,0.000,2.601,0.000,10.263,0.000,0.000,24.743
11177,4.181,0.000,2.601,0.000,10.263,0.000,0.000,24.691
11195,4.181,0.000,2.601,0.000,10.263,0.000,0.000,24.717
11213,4.181,0.000,2.601,0.000,10.263,0.000,0.000,24.743
11231,4.181,0.000,2.601,0.000,10.263,0.000,0.000,24.730
11249,4.180,0.000,2.601,0.000,10.263,0.000,0.000,24.683
11267,4.180,0.000,2.601,0.000,10.263,0.000,0.000,24.685
11285,4.180,0.000,2.601,0.000,10.263,0.000,0.000,24.733
11303,4.180,0.000,2.601,0.000,10.263,0.000,0.000,24.707
11321,4.180,0.000,2.601,0.000,10.263,0.000,0.000,24.746
11339,4.180,0.000,2.601,0.000,10.263,0.000,0.000,24.696
11357,4.180,0.000,2.601,0.000,10.263,0.000,0.000,24.711
11375,4.180,0.000,2.601,0.000,10.263,0.000,0.000,24.750
11393,4.180,0.000,2.601,0.000,10.263,0.000,0.000,24.745
11411,4.180,0.000,2.601,0.000,10.263,0.000,0.000,24.741
11429,4.180,0.000,2.601,0.000,10.263,0.000,0.000,24.741
11447,4.180,0.000,2.601,0.000,10.263,0.000,0.000,24.718
11465,4.180,0.000,2.601,0.000,10.263,0.000,0.000,24.718
11483,4.180,0.000,2.601,0.000,10.263,0.000,0.000,24.738
11501,4.180,0.000,2.601,0.000,10.263,0.000,0.000,24.737
11519,4.180,0.000,2.601,0.000,10.263,0.000,0.000,24.767
11537,4.180,0.000,2.601,0.000,10.263,0.000,0.000,24.711
11555,4.180,0.000,2.601,0.000,10.263,0.000,0.000,24.728
11573,4.180,0.000,2.601,0.000,10.263,0.000,0.000,24.759
11591,4.180,0.000,2.601,0.000,10.263,0.000,0.000,24.725
11609,4.180,0.000,2.601,0.000,10.263,0.000,0.000,24.724
11627,4.180,0.000,2.601,0.000,10.263,0.000,0.000,24.729
11645,4.180,0.000,2.601,0.000,10.263,0.000,0.000,24.713
11663,4.180,0.000,2.601,0.000,10.263,0.000,0.000,24.737
11681,4.180,0.000,2.601,0.000,10.263,0.000,0.000,24.725
11699,4.180,0.000,2.601,0.000,10.263,0.000,0.000,24.710
11717,4.180,0.000,2.601,0.000,10.263,0.000,0.000,24.717
11735,4.180,0.000,2.601,0.000,10.263,0.000,0.000,24.728
11753,4.180,0.000,2.601,0.000,10.263,0.000,0.000,24.716
11771,4.180,0.000,2.601,0.000,10.263,0.000,0.000,24.730
11789,4.180,0.000,2.601,0.000,10.263,0.000,0.000,24.730
11807,4.180,0.000,2.601,0.000,10.263,0.000,0.000,24.753
11825,4.180,0.000,2.601,0.000,10.263,0.000,0.000,24.755
11843,4.180,0.000,2.601,0.000,10.263,0.000,0.000,24.737
11861,4.179,0.000,2.601,0.000,10.263,0.000,0.000,24.747
11879,4.179,0.000,2.601,0.000,10.263,0.000,0.000,24.722
11897,4.179,0.000,2.601,0.000,10.263,0.000,0.000,24.746
11915,4.179,0.000,2.601,0.000,10.263,0.000,0.000,24.741
11933,4.179,0.000,2.601,0.000,10.263,0.000,0.000,24.722
11951,4.179,0.000,2.601,0.000,10.263,0.000,0.000,24.764
11969,4.179,0.000,2.601,0.000,10.263,0.000,0.000,24.768
11987,4.179,0.000,2.601,0.000,10.263,0.000,0.000,24.749
12005,4.179,0.000,2.601,0.000,10.263,0.000,0.000,24.725
12023,4.179,0.000,2.601,0.000,10.263,0.000,0.000,24.751
12041,4.179,0.000,2.601,0.000,10.263,0.000,0.000,24.755
12059,4.179,0.000,2.601,0.000,10.263,0.000,0.000,24.770
12077,4.179,0.000,2.601,0.000,10.263,0.000,0.000,24.748
12095,4.179,0.000,2.601,0.000,10.263,0.000,0.000,24.750
12113,4.179,0.000,2.601,0.000,10.263,0.000,0.000,24.740
12131,4.179,0.000,2.601,0.000,10.263,0.000,0.000,24.758
12149,4.179,0.000,2.601,0.000,10.263,0.000,0.000,24.754
12167,4.179,0.000,2.601,0.000,10.263,0.000,0.000,24.763
12185,4.179,0.000,2.601,0.000,10.263,0.000,0.000,24.752
12203,4.179,0.000,2.601,0.000,10.263,0.000,0.000,24.771
12221,4.179,0.000,2.601,0.000,10.263,0.000,0.000,24.772
12238,3.004,-16.748,2.601,0.056,10.263,0.172,-0.010,26.027
12256,2.894,-16.747,2.601,0.140,10.263,0.419,-0.005,29.357
12274,2.806,-16.747,2.601,0.223,10.263,0.657,-0.002,33.753
12292,2.694,-16.748,2.601,0.307,10.263,0.888,-0.005,37.482
12309,3.848,0.000,2.601,0.351,10.263,1.005,0.010,40.599
12327,3.937,0.000,2.601,0.351,10.263,1.005,0.003,41.595
12345,3.976,0.000,2.601,0.351,10.263,1.005,0.002,41.297
12363,3.998,0.000,2.601,0.351,10.263,1.005,0.001,40.890
12381,4.011,0.000,2.601,0.351,10.263,1.005,0.000,40.064
12399,4.019,0.000,2.601,0.351,10.263,1.005,0.000,39.079
12417,4.024,0.000,2.601,0.351,10.263,1.005,0.000,38.406
12435,4.028,0.000,2.601,0.351,10.263,1.005,0.000,37.654
12453,4.030,0.000,2.601,0.351,10.263,1.005,0.000,36.853
12471,4.033,0.000,2.601,0.351,10.263,1.005,0.000,36.185
12489,4.035,0.000,2.601,0.351,10.263,1.005,0.000,35.585
12507,4.036,0.000,2.601,0.351,10.263,1.005,0.000,34.962
12525,4.038,0.000,2.601,0.351,10.263,1.005,0.000,34.480
12543,4.040,0.000,2.601,0.351,10.263,1.005,0.000,33.912
12561,4.041,0.000,2.601,0.351,10.263,1.005,0.000,33.398
12579,4.042,0.000,2.601,0.351,10.263,1.005,0.000,32.956
12597,4.043,0.000,2.601,0.351,10.263,1.005,0.000,32.464
12615,4.044,0.000,2.601,0.351,10.263,1.005,0.000,32.081
12633,4.045,0.000,2.601,0.351,10.263,1.005,0.000,31.678
12651,4.046,0.000,2.601,0.351,10.263,1.005,0.000,31.254
12669,4.046,0.000,2.601,0.351,10.263,1.005,0.000,31.003
12687,4.047,0.000,2.601,0.351,10.263,1.005,0.000,30.635
12705,4.047,0.000,2.601,0.351,10.263,1.005,0.000,30.325
12723,4.047,0.000,2.601,0.351,10.263,1.005,0.000,30.150
12741,4.048,0.000,2.601,0.351,10.263,1.005,0.000,29.833
12759,4.048,0.000,2.601,0.351,10.263,1.005,0.000,29.543
12777,4.048,0.000,2.601,0.351,10.263,1.005,0.000,29.322
12795,4.048,0.000,2.601,0.351,10.263,1.005,0.000,29.183
12813,4.048,0.000,2.601,0.351,10.263,1.005,0.000,28.907
12831,4.048,0.000,2.601,0.351,10.263,1.005,0.000,28.714
12849,4.048,0.000,2.601,0.351,10.263,1.005,0.000,28.528
12867,4.049,0.000,2.601,0.351,10.263,1.005,0.000,28.324
12885,4.049,0.000,2.601,0.351,10.263,1.005,0.000,28.171
12903,4.049,0.000,2.601,0.351,10.263,1.005,0.000,28.026
12921,4.049,0.000,2.601,0.351,10.263,1.005,0.000,27.889
12939,4.049,0.000,2.601,0.351,10.263,1.005,0.000,27.743
12957,4.049,0.000,2.601,0.351,10.263,1.005,0.000,27.606
12975,4.049,0.000,2.601,0.351,10.263,1.005,0.000,27.466
12993,4.049,0.000,2.601,0.351,10.263,1.005,0.000,27.349
13011,4.049,0.000,2.601,0.351,10.263,1.005,0.000,27.255
13029,4.049,0.000,2.601,0.351,10.263,1.005,0.000,27.055
13047,4.049,0.000,2.601,0.351,10.263,1.005,0.000,27.021
13065,4.049,0.000,2.601,0.351,10.263,1.005,0.000,26.884
13083,4.049,0.000,2.601,0.351,10.263,1.005,0.000,26.851
13101,4.049,0.000,2.601,0.351,10.263,1.005,0.000,26.696
13119,4.049,0.000,2.601,0.351,10.263,1.005,0.000,26.635
13137,4.049,0.000,2.601,0.351,10.263,1.005,0.000,26.543
13155,4.049,0.000,2.601,0.351,10.263,1.005,0.000,26.450
13173,4.049,0.000,2.601,0.351,10.263,1.005,0.000,26.391
13191,4.049,0.000,2.601,0.351,10.263,1.005,0.000,26.284
13209,4.049,0.000,2.601,0.351,10.263,1.005,0.000,26.303
13227,4.049,0.000,2.601,0.351,10.263,1.005,0.000,26.196
13245,4.049,0.000,2.601,0.351,10.263,1.005,0.000,26.100
13263,4.049,0.000,2.601,0.351,10.263,1.005,0.000,26.099
13281,4.049,0.000,2.601,0.351,10.263,1.005,0.000,26.036
13299,4.049,0.000,2.601,0.351,10.263,1.005,0.000,25.998
13317,4.049,0.000,2.601,0.351,10.263,1.005,0.000,25.964
13335,4.049,0.000,2.601,0.351,10.263,1.005,0.000,25.905
13353,4.049,0.000,2.601,0.351,10.263,1.005,0.000,25.853
13371,4.049,0.000,2.601,0.351,10.263,1.005,0.000,25.798
13389,4.049,0.000,2.601,0.351,10.263,1.005,0.000,25.725
13407,4.049,0.000,2.601,0.351,10.263,1.005,0.000,25.730
13425,4.050,0.000,2.601,0.351,10.263,1.005,0.000,25.655
13443,4.050,0.000,2.601,0.351,10.263,1.005,0.000,25.606
13461,4.050,0.000,2.601,0.351,10.263,1.005,0.000,25.594
13479,4.050,0.000,2.601,0.351,10.263,1.005,0.000,25.597
13497,4.050,0.000,2.601,0.351,10.263,1.005,0.000,25.529
13515,4.050,0.000,2.601,0.351,10.263,1.005,0.000,25.506
13533,4.050,0.000,2.601,0.351,10.263,1.005,0.000,25.460
13551,4.050,0.000,2.601,0.351,10.263,1.005,0.000,25.509
13569,4.050,0.000,2.601,0.351,10.263,1.005,0.000,25.446
13587,4.050,0.000,2.601,0.351,10.263,1.005,0.000,25.392
13605,4.050,0.000,2.601,0.351,10.263,1.005,0.000,25.385
13623,4.049,0.000,2.601,0.351,10.263,1.005,0.000,25.355
13641,4.050,0.000,2.601,0.351,10.263,1.005,0.000,25.338
13659,4.050,0.000,2.601,0.351,10.263,1.005,0.000,25.306
13677,4.050,0.000,2.601,0.351,10.263,1.005,0.000,25.284
13695,4.050,0.000,2.601,0.351,10.263,1.005,0.000,25.270
13713,4.050,0.000,2.601,0.351,10.263,1.005,0.000,25.283
13731,4.050,0.000,2.601,0.351,10.263,1.005,0.000,25.257
13749,4.050,0.000,2.601,0.351,10.263,1.005,0.000,25.213
13767,4.050,0.000,2.601,0.351,10.263,1.005,0.000,25.227
13785,4.050,0.000,2.601,0.351,10.263,1.005,0.000,25.183
13803,4.050,0.000,2.601,0.351,10.263,1.005,0.000,25.168
13821,4.050,0.000,2.601,0.351,10.263,1.005,0.000,25.162
13839,4.050,0.000,2.601,0.351,10.263,1.005,0.000,25.158
13857,4.050,0.000,2.601,0.351,10.263,1.005,0.000,25.081
13875,4.050,0.000,2.601,0.351,10.263,1.005,0.000,25.093
13893,4.050,0.000,2.601,0.351,10.263,1.005,0.000,25.083
13911,4.050,0.000,2.601,0.351,10.263,1.005,0.000,25.108
13929,4.050,0.000,2.601,0.351,10.263,1.005,0.000,25.079
13947,4.050,0.000,2.601,0.351,10.263,1.005,0.000,25.042
13965,4.050,0.000,2.601,0.351,10.263,1.005,0.000,25.053
13983,4.050,0.000,2.601,0.351,10.263,1.005,0.000,25.056
14001,4.050,0.000,2.601,0.351,10.263,1.005,0.000,25.033
14019,4.050,0.000,2.601,0.351,10.263,1.005,0.000,25.009
14037,4.050,0.000,2.601,0.351,10.263,1.005,0.000,24.997
14055,4.050,0.000,2.601,0.351,10.263,1.005,0.000,25.005
14073,4.050,0.000,2.601,0.351,10.263,1.005,0.000,24.983
14091,4.050,0.000,2.601,0.351,10.263,1.005,0.000,24.975
14109,4.050,0.000,2.601,0.351,10.263,1.005,0.000,24.977
14127,4.050,0.000,2.601,0.351,10.263,1.005,0.000,24.997
14145,4.050,0.000,2.601,0.351,10.263,1.005,0.000,24.978
14163,4.050,0.000,2.601,0.351,10.263,1.005,0.000,24.987
14181,4.050,0.000,2.601,0.351,10.263,1.005,0.000,24.983
14199,4.050,0.000,2.601,0.351,10.263,1.005,0.000,24.997
14217,4.050,0.000,2.601,0.351,10.263,1.005,0.000,24.932
14235,4.050,0.000,2.601,0.351,10.263,1.005,0.000,24.925
14253,4.050,0.000,2.601,0.351,10.263,1.005,0.000,24.991
14271,4.050,0.000,2.601,0.351,10.263,1.005,0.000,24.945
14289,4.050,0.000,2.601,0.351,10.263,1.005,0.000,24.951
14307,4.050,0.000,2.601,0.351,10.263,1.005,0.000,24.950
14325,4.050,0.000,2.601,0.351,10.263,1.005,0.000,24.943
14343,4.050,0.000,2.601,0.351,10.263,1.005,0.000,24.915
14361,4.050,0.000,2.601,0.351,10.263,1.005,0.000,24.935
14379,4.050,0.000,2.601,0.351,10.263,1.005,0.000,24.892
14397,4.050,0.000,2.601,0.351,10.263,1.005,0.000,24.871
14415,4.050,0.000,2.601,0.351,10.263,1.005,0.000,24.915
14433,4.050,0.000,2.601,0.351,10.263,1.005,0.000,24.888
14451,4.050,0.000,2.601,0.351,10.263,1.005,0.000,24.931
14469,4.050,0.000,2.601,0.351,10.263,1.005,0.000,24.943
14487,4.050,0.000,2.601,0.351,10.263,1.005,0.000,24.936
14505,4.050,0.000,2.601,0.351,10.263,1.005,0.000,24.980
14523,4.050,0.000,2.601,0.351,10.263,1.005,0.000,24.961
14541,4.050,0.000,2.601,0.351,10.263,1.005,0.000,24.946
14559,4.050,0.000,2.601,0.351,10.263,1.005,0.000,24.933
14577,4.050,0.000,2.601,0.351,10.263,1.005,0.000,24.836
14595,4.050,0.000,2.601,0.351,10.263,1.005,0.000,24.867
14613,4.050,0.000,2.601,0.351,10.263,1.005,0.000,24.875
14631,4.050,0.000,2.601,0.351,10.263,1.005,0.000,24.867
14649,4.050,0.000,2.601,0.351,10.263,1.005,0.000,24.909
14667,4.050,0.000,2.601,0.351,10.263,1.005,0.000,24.972
14685,4.050,0.000,2.601,0.351,10.263,1.005,0.000,24.988
14703,4.050,0.000,2.601,0.351,10.263,1.005,0.000,25.015
14721,4.050,0.000,2.601,0.351,10.263,1.005,0.000,25.088
14739,4.050,0.000,2.601,0.351,10.263,1.005,0.000,25.160
14757,4.050,0.000,2.601,0.351,10.263,1.005,0.000,25.176
14775,4.050,0.000,2.601,0.351,10.263,1.005,0.000,25.170
14793,4.050,0.000,2.601,0.351,10.263,1.005,0.000,25.150
14811,4.050,0.000,2.601,0.351,10.263,1.005,0.000,25.140
14829,4.050,0.000,2.601,0.351,10.263,1.005,0.000,25.224
14847,4.050,0.000,2.601,0.351,10.263,1.005,0.000,25.196
14865,4.050,0.000,2.601,0.351,10.263,1.005,0.000,25.176
14883,4.050,0.000,2.601,0.351,10.263,1.005,0.000,25.124
14901,4.050,0.000,2.601,0.351,10.263,1.005,0.000,25.145
14919,4.050,0.000,2.601,0.351,10.263,1.005,0.000,25.180
14937,4.050,0.000,2.601,0.351,10.263,1.005,0.000,25.160
14955,4.050,0.000,2.601,0.351,10.263,1.005,0.000,25.143
14973,4.050,0.000,2.601,0.351,10.263,1.005,0.000,25.122
14991,4.050,0.000,2.601,0.351,10.263,1.005,0.000,25.098
15009,4.050,0.000,2.601,0.351,10.263,1.005,0.000,25.077
15027,4.050,0.000,2.601,0.351,10.263,1.005,0.000,25.055
15045,4.050,0.000,2.601,0.351,10.263,1.005,0.000,25.062
15063,4.050,0.000,2.601,0.351,10.263,1.005,0.000,25.097
15081,4.050,0.000,2.601,0.351,10.263,1.005,0.000,25.066
15099,4.050,0.000,2.601,0.351,10.263,1.005,0.000,25.075
15117,4.050,0.000,2.601,0.351,10.263,1.005,0.000,25.072
15135,4.050,0.000,2.601,0.351,10.263,1.005,0.000,25.083
15153,4.050,0.000,2.601,0.351,10.263,1.005,0.000,25.030
15171,4.050,0.000,2.601,0.351,10.263,1.005,0.000,25.070
15189,4.050,0.000,2.601,0.351,10.263,1.005,0.000,25.054
15207,4.050,0.000,2.601,0.351,10.263,1.005,0.000,25.079
15225,4.050,0.000,2.601,0.351,10.263,1.005,0.000,25.063
15243,4.050,0.000,2.601,0.351,10.263,1.005,0.000,25.056
15261,4.050,0.000,2.601,0.351,10.263,1.005,0.000,25.121
15279,4.050,0.000,2.601,0.351,10.263,1.005,0.000,25.088
15297,4.050,0.000,2.601,0.351,10.263,1.005,0.000,25.069
15315,4.050,0.000,2.601,0.351,10.263,1.005,0.000,25.101
15333,4.050,0.000,2.601,0.351,10.263,1.005,0.000,25.075
15351,4.050,0.000,2.601,0.351,10.263,1.005,0.000,25.074
15369,4.050,0.000,2.601,0.351,10.263,1.005,0.000,25.066
15387,4.050,0.000,2.601,0.351,10.263,1.005,0.000,25.130
15405,4.050,0.000,2.601,0.351,10.263,1.005,0.000,25.071
15423,4.050,0.000,2.601,0.351,10.263,1.005,0.000,25.105
15441,4.050,0.000,2.601,0.351,10.263,1.005,0.000,25.061
15459,4.050,0.000,2.601,0.351,10.263,1.005,0.000,25.116
15477,4.050,0.000,2.601,0.351,10.263,1.005,0.000,25.103
15495,4.050,0.000,2.601,0.351,10.263,1.005,0.000,25.140
15513,4.050,0.000,2.601,0.351,10.263,1.005,0.000,25.123
15531,4.050,0.000,2.601,0.351,10.263,1.005,0.000,25.126
15549,4.050,0.000,2.601,0.351,10.263,1.005,0.000,25.139
15567,4.050,0.000,2.601,0.351,10.263,1.005,0.000,25.116
15585,4.050,0.000,2.601,0.351,10.263,1.005,0.000,25.179
15603,4.050,0.000,2.601,0.351,10.263,1.005,0.000,25.158
15621,4.050,0.000,2.601,0.351,10.263,1.005,0.000,25.163
15639,4.050,0.000,2.601,0.351,10.263,1.005,0.000,25.143
15657,4.050,0.000,2.601,0.351,10.263,1.005,0.000,25.158
15675,4.050,0.000,2.601,0.351,10.263,1.005,0.000,25.146
15693,4.050,0.000,2.601,0.351,10.263,1.005,0.000,25.136
15711,4.050,0.000,2.601,0.351,10.263,1.005,0.000,25.147
15729,4.050,0.000,2.601,0.351,10.263,1.005,0.000,25.126
15747,4.050,0.000,2.601,0.351,10.263,1.005,0.000,25.151
15765,4.050,0.000,2.601,0.351,10.263,1.005,0.000,25.158
15783,4.050,0.000,2.601,0.351,10.263,1.005,0.000,25.195
15801,4.050,0.000,2.601,0.351,10.263,1.005,0.000,25.139
15819,4.050,0.000,2.601,0.351,10.263,1.005,0.000,25.151
15837,4.050,0.000,2.601,0.351,10.263,1.005,0.000,25.166
15855,4.050,0.000,2.601,0.351,10.263,1.005,0.000,25.195
15873,4.050,0.000,2.601,0.351,10.263,1.005,0.000,25.176
15891,4.050,0.000,2.601,0.351,10.263,1.005,0.000,25.211
15901,4.050,0.000,2.601,0.351,10.263,1.005,0.000,25.193