File: data/T25/5C/5.csv
time_s,voltage_v,current_a,chargecapacity_ah,dischargecapacity_ah,charge_energy_wh,discharge_energy_wh,voltagedot_v_per_s,temp_degc
1,3.528,0.000,0.000,0.000,0.000,0.000,0.000,25.200
19,3.528,0.000,0.000,0.000,0.000,0.000,0.000,25.230
37,3.528,0.000,0.000,0.000,0.000,0.000,0.000,25.235
55,3.528,0.000,0.000,0.000,0.000,0.000,0.000,25.229
72,3.743,1.625,0.005,0.000,0.020,0.000,-0.020,25.227
90,3.739,1.625,0.014,0.000,0.051,0.000,-0.002,25.263
108,3.741,1.625,0.022,0.000,0.081,0.000,-0.001,25.315
126,3.749,1.625,0.030,0.000,0.112,0.000,0.000,25.333
144,3.751,1.625,0.038,0.000,0.142,0.000,0.004,25.380
162,3.747,1.625,0.046,0.000,0.172,0.000,-0.004,25.382
180,3.756,1.625,0.054,0.000,0.203,0.000,-0.004,25.458
198,3.757,1.625,0.062,0.000,0.234,0.000,0.011,25.507
216,3.762,1.625,0.070,0.000,0.264,0.000,-0.005,25.574
234,3.769,1.625,0.079,0.000,0.295,0.000,-0.002,25.587
252,3.772,1.625,0.087,0.000,0.325,0.000,0.000,25.625
270,3.769,1.625,0.095,0.000,0.356,0.000,0.001,25.697
288,3.763,1.625,0.103,0.000,0.387,0.000,-0.004,25.677
306,3.770,1.625,0.111,0.000,0.417,0.000,-0.003,25.727
324,3.777,1.625,0.119,0.000,0.448,0.000,0.001,25.796
342,3.777,1.625,0.127,0.000,0.478,0.000,-0.007,25.830
360,3.777,1.625,0.135,0.000,0.509,0.000,0.007,25.856
378,3.783,1.625,0.144,0.000,0.540,0.000,0.011,25.895
396,3.780,1.625,0.152,0.000,0.571,0.000,0.002,25.924
414,3.780,1.625,0.160,0.000,0.601,0.000,0.000,25.984
432,3.782,1.625,0.168,0.000,0.632,0.000,0.002,26.007
450,3.786,1.625,0.176,0.000,0.663,0.000,0.002,26.084
468,3.776,1.625,0.184,0.000,0.693,0.000,-0.001,26.094
486,3.782,1.625,0.192,0.000,0.724,0.000,0.003,26.149
504,3.779,1.625,0.200,0.000,0.755,0.000,0.005,26.162
522,3.788,1.625,0.209,0.000,0.786,0.000,0.003,26.198
540,3.784,1.625,0.217,0.000,0.816,0.000,0.000,26.237
558,3.789,1.625,0.225,0.000,0.847,0.000,0.002,26.260
576,3.807,1.625,0.233,0.000,0.878,0.000,0.006,26.282
594,3.797,1.625,0.241,0.000,0.909,0.000,-0.004,26.326
612,3.798,1.625,0.249,0.000,0.940,0.000,0.007,26.324
630,3.800,1.625,0.257,0.000,0.971,0.000,0.009,26.373
648,3.802,1.625,0.265,0.000,1.002,0.000,-0.002,26.382
666,3.804,1.625,0.274,0.000,1.032,0.000,0.004,26.423
684,3.808,1.625,0.282,0.000,1.063,0.000,0.006,26.468
702,3.805,1.625,0.290,0.000,1.094,0.000,0.000,26.482
720,3.804,1.625,0.298,0.000,1.125,0.000,-0.008,26.507
738,3.813,1.625,0.306,0.000,1.156,0.000,0.003,26.535
756,3.808,1.625,0.314,0.000,1.187,0.000,-0.002,26.563
774,3.820,1.625,0.322,0.000,1.218,0.000,-0.002,26.580
792,3.817,1.625,0.330,0.000,1.249,0.000,0.003,26.609
810,3.816,1.625,0.339,0.000,1.280,0.000,0.006,26.594
828,3.820,1.625,0.347,0.000,1.311,0.000,0.006,26.622
846,3.816,1.625,0.355,0.000,1.342,0.000,-0.001,26.644
864,3.827,1.625,0.363,0.000,1.373,0.000,0.000,26.677
882,3.824,1.625,0.371,0.000,1.404,0.000,-0.005,26.692
900,3.829,1.625,0.379,0.000,1.435,0.000,-0.003,26.721
918,3.830,1.625,0.387,0.000,1.466,0.000,0.002,26.717
936,3.832,1.625,0.395,0.000,1.497,0.000,-0.001,26.771
954,3.832,1.625,0.404,0.000,1.529,0.000,0.000,26.786
972,3.835,1.625,0.412,0.000,1.560,0.000,0.000,26.786
990,3.837,1.625,0.420,0.000,1.591,0.000,-0.001,26.795
1008,3.839,1.625,0.428,0.000,1.622,0.000,0.002,26.821
1026,3.835,1.625,0.436,0.000,1.653,0.000,-0.004,26.814
1044,3.842,1.625,0.444,0.000,1.684,0.000,-0.004,26.816
1062,3.841,1.625,0.452,0.000,1.716,0.000,-0.006,26.856
1080,3.844,1.625,0.460,0.000,1.747,0.000,0.006,26.914
1098,3.844,1.625,0.469,0.000,1.778,0.000,0.000,26.893
1116,3.842,1.625,0.477,0.000,1.809,0.000,-0.002,26.890
1134,3.846,1.625,0.485,0.000,1.841,0.000,-0.001,26.940
1152,3.844,1.625,0.493,0.000,1.872,0.000,0.002,26.901
1170,3.853,1.625,0.501,0.000,1.903,0.000,0.010,26.885
1188,3.854,1.625,0.509,0.000,1.934,0.000,0.004,26.954
1206,3.857,1.625,0.517,0.000,1.966,0.000,0.009,26.929
1224,3.855,1.625,0.525,0.000,1.997,0.000,0.005,26.969
1242,3.858,1.625,0.534,0.000,2.028,0.000,0.004,26.958
1260,3.861,1.625,0.542,0.000,2.060,0.000,0.003,26.969
1278,3.860,1.625,0.550,0.000,2.091,0.000,0.003,27.015
1296,3.865,1.625,0.558,0.000,2.122,0.000,-0.005,26.940
1314,3.871,1.625,0.566,0.000,2.154,0.000,0.001,27.025
1332,3.869,1.625,0.574,0.000,2.185,0.000,0.003,26.973
1350,3.874,1.625,0.582,0.000,2.217,0.000,0.011,26.980
1368,3.864,1.625,0.590,0.000,2.248,0.000,-0.009,27.048
1386,3.870,1.625,0.599,0.000,2.280,0.000,0.006,27.064
1404,3.877,1.625,0.607,0.000,2.311,0.000,0.001,27.040
1422,3.879,1.625,0.615,0.000,2.343,0.000,0.002,27.036
1440,3.879,1.625,0.623,0.000,2.374,0.000,0.001,27.032
1458,3.880,1.625,0.631,0.000,2.406,0.000,-0.003,27.081
1476,3.877,1.625,0.639,0.000,2.437,0.000,-0.002,27.067
1494,3.882,1.625,0.647,0.000,2.469,0.000,0.000,27.057
1512,3.887,1.625,0.655,0.000,2.500,0.000,0.002,27.056
1530,3.886,1.625,0.664,0.000,2.532,0.000,0.008,27.055
1548,3.888,1.625,0.672,0.000,2.563,0.000,-0.011,27.051
1566,3.894,1.625,0.680,0.000,2.595,0.000,-0.003,27.048
1584,3.897,1.625,0.688,0.000,2.627,0.000,0.000,27.072
1602,3.899,1.625,0.696,0.000,2.658,0.000,0.000,27.078
1620,3.893,1.625,0.704,0.000,2.690,0.000,0.003,27.087
1638,3.897,1.625,0.712,0.000,2.722,0.000,0.000,27.109
1656,3.897,1.625,0.720,0.000,2.753,0.000,-0.007,27.050
1674,3.902,1.625,0.729,0.000,2.785,0.000,0.011,27.114
1692,3.899,1.625,0.737,0.000,2.817,0.000,-0.001,27.092
1710,3.904,1.625,0.745,0.000,2.848,0.000,-0.004,27.094
1728,3.910,1.625,0.753,0.000,2.880,0.000,0.008,27.108
1746,3.909,1.625,0.761,0.000,2.912,0.000,0.002,27.067
1764,3.915,1.625,0.769,0.000,2.944,0.000,0.011,27.094
1782,3.921,1.625,0.777,0.000,2.975,0.000,0.002,27.082
1800,3.933,1.625,0.785,0.000,3.007,0.000,0.003,27.077
1818,3.926,1.625,0.793,0.000,3.039,0.000,0.000,27.100
1836,3.933,1.625,0.802,0.000,3.071,0.000,-0.002,27.059
1854,3.924,1.625,0.810,0.000,3.103,0.000,-0.004,27.129
1872,3.931,1.625,0.818,0.000,3.135,0.000,0.002,27.105
1890,3.932,1.625,0.826,0.000,3.167,0.000,0.004,27.091
1908,3.925,1.625,0.834,0.000,3.199,0.000,-0.004,27.086
1926,3.932,1.625,0.842,0.000,3.231,0.000,-0.001,27.086
1944,3.929,1.625,0.850,0.000,3.263,0.000,-0.001,27.131
1962,3.932,1.625,0.858,0.000,3.295,0.000,-0.001,27.085
1980,3.940,1.625,0.867,0.000,3.327,0.000,0.002,27.100
1998,3.938,1.625,0.875,0.000,3.359,0.000,0.003,27.068
2016,3.940,1.625,0.883,0.000,3.391,0.000,0.000,27.086
2034,3.943,1.625,0.891,0.000,3.423,0.000,-0.001,27.100
2052,3.949,1.625,0.899,0.000,3.455,0.000,0.007,27.115
2070,3.948,1.625,0.907,0.000,3.487,0.000,-0.004,27.102
2088,3.949,1.625,0.915,0.000,3.519,0.000,-0.002,27.108
2106,3.941,1.625,0.923,0.000,3.551,0.000,0.001,27.104
2124,3.951,1.625,0.932,0.000,3.583,0.000,-0.001,27.066
2142,3.947,1.625,0.940,0.000,3.615,0.000,0.003,27.059
2160,3.952,1.625,0.948,0.000,3.647,0.000,0.005,27.100
2178,3.959,1.625,0.956,0.000,3.679,0.000,-0.003,27.076
2196,3.956,1.625,0.964,0.000,3.711,0.000,0.000,27.066
2214,3.953,1.625,0.972,0.000,3.743,0.000,-0.001,27.039
2232,3.950,1.625,0.980,0.000,3.776,0.000,-0.002,27.088
2250,3.954,1.625,0.988,0.000,3.808,0.000,0.002,27.079
2268,3.954,1.625,0.997,0.000,3.840,0.000,0.000,27.080
2286,3.953,1.625,1.005,0.000,3.872,0.000,-0.001,27.048
2304,3.958,1.625,1.013,0.000,3.904,0.000,0.001,27.077
2322,3.960,1.625,1.021,0.000,3.936,0.000,0.002,27.012
2340,3.962,1.625,1.029,0.000,3.968,0.000,-0.002,27.005
2358,3.960,1.625,1.037,0.000,4.001,0.000,-0.001,27.049
2376,3.960,1.625,1.045,0.000,4.033,0.000,0.001,27.008
2394,3.964,1.625,1.053,0.000,4.065,0.000,-0.004,26.997
2412,3.963,1.625,1.062,0.000,4.097,0.000,-0.003,26.958
2430,3.962,1.625,1.070,0.000,4.129,0.000,-0.001,26.955
2448,3.969,1.625,1.078,0.000,4.162,0.000,0.001,26.979
2466,3.968,1.625,1.086,0.000,4.194,0.000,0.003,26.937
2484,3.967,1.625,1.094,0.000,4.226,0.000,0.001,26.938
2502,3.975,1.625,1.102,0.000,4.258,0.000,0.003,26.943
2520,3.973,1.625,1.110,0.000,4.291,0.000,0.000,26.889
2538,3.979,1.625,1.118,0.000,4.323,0.000,-0.002,26.915
2556,3.985,1.625,1.127,0.000,4.355,0.000,0.000,26.910
2574,3.986,1.625,1.135,0.000,4.388,0.000,0.001,26.875
2592,3.988,1.625,1.143,0.000,4.420,0.000,0.003,26.948
2610,3.990,1.625,1.151,0.000,4.452,0.000,-0.004,26.841
2628,3.992,1.625,1.159,0.000,4.485,0.000,0.002,26.873
2646,3.995,1.625,1.167,0.000,4.517,0.000,-0.004,26.851
2664,4.001,1.625,1.175,0.000,4.550,0.000,-0.002,26.835
2682,3.998,1.625,1.183,0.000,4.582,0.000,-0.004,26.823
2700,4.001,1.625,1.192,0.000,4.615,0.000,0.000,26.855
2718,4.002,1.625,1.200,0.000,4.647,0.000,0.000,26.820
2736,4.005,1.625,1.208,0.000,4.680,0.000,0.002,26.847
2754,4.007,1.625,1.216,0.000,4.712,0.000,0.004,26.786
2772,4.011,1.625,1.224,0.000,4.745,0.000,0.003,26.785
2790,4.012,1.625,1.232,0.000,4.778,0.000,-0.002,26.790
2808,4.016,1.625,1.240,0.000,4.810,0.000,-0.004,26.796
2826,4.018,1.625,1.248,0.000,4.843,0.000,-0.002,26.761
2844,4.017,1.625,1.257,0.000,4.876,0.000,-0.002,26.756
2862,4.019,1.625,1.265,0.000,4.908,0.000,0.002,26.773
2880,4.022,1.625,1.273,0.000,4.941,0.000,-0.003,26.729
2898,4.024,1.625,1.281,0.000,4.974,0.000,-0.002,26.720
2916,4.027,1.625,1.289,0.000,5.006,0.000,-0.001,26.709
2934,4.028,1.625,1.297,0.000,5.039,0.000,-0.001,26.748
2952,4.033,1.625,1.305,0.000,5.072,0.000,0.001,26.734
2970,4.034,1.625,1.313,0.000,5.104,0.000,0.001,26.717
2988,4.037,1.625,1.322,0.000,5.137,0.000,-0.002,26.689
3006,4.038,1.625,1.330,0.000,5.170,0.000,0.000,26.711
3024,4.036,1.625,1.338,0.000,5.203,0.000,-0.002,26.680
3042,4.042,1.625,1.346,0.000,5.236,0.000,-0.002,26.676
3060,4.043,1.625,1.354,0.000,5.268,0.000,-0.002,26.692
3078,4.045,1.625,1.362,0.000,5.301,0.000,0.000,26.654
3096,4.050,1.625,1.370,0.000,5.334,0.000,0.000,26.651
3114,4.053,1.625,1.378,0.000,5.367,0.000,0.002,26.662
3132,4.054,1.625,1.387,0.000,5.400,0.000,-0.001,26.618
3150,4.058,1.625,1.395,0.000,5.433,0.000,0.001,26.593
3168,4.059,1.625,1.403,0.000,5.466,0.000,0.000,26.626
3186,4.062,1.625,1.411,0.000,5.499,0.000,0.000,26.599
3204,4.063,1.625,1.419,0.000,5.532,0.000,0.002,26.602
3222,4.064,1.625,1.427,0.000,5.565,0.000,0.000,26.600
3240,4.065,1.625,1.435,0.000,5.598,0.000,-0.001,26.581
3258,4.068,1.625,1.443,0.000,5.631,0.000,0.001,26.611
3276,4.070,1.625,1.452,0.000,5.664,0.000,0.000,26.599
3294,4.073,1.625,1.460,0.000,5.697,0.000,0.001,26.591
3312,4.074,1.625,1.468,0.000,5.730,0.000,0.000,26.555
3330,4.076,1.625,1.476,0.000,5.763,0.000,0.000,26.612
3348,4.077,1.625,1.484,0.000,5.796,0.000,0.000,26.565
3366,4.078,1.625,1.492,0.000,5.830,0.000,0.000,26.566
3384,4.083,1.625,1.500,0.000,5.863,0.000,0.001,26.583
3402,4.085,1.625,1.508,0.000,5.896,0.000,0.001,26.554
3420,4.089,1.625,1.517,0.000,5.929,0.000,0.004,26.567
3438,4.090,1.625,1.525,0.000,5.962,0.000,0.000,26.610
3456,4.093,1.625,1.533,0.000,5.996,0.000,-0.001,26.583
3474,4.095,1.625,1.541,0.000,6.029,0.000,0.000,26.572
3492,4.096,1.625,1.549,0.000,6.062,0.000,0.001,26.566
3510,4.098,1.625,1.557,0.000,6.095,0.000,0.001,26.569
3528,4.100,1.625,1.565,0.000,6.129,0.000,0.000,26.554
3546,4.104,1.625,1.573,0.000,6.162,0.000,0.001,26.564
3564,4.105,1.625,1.582,0.000,6.195,0.000,0.001,26.624
3582,4.105,1.625,1.590,0.000,6.229,0.000,0.000,26.589
3600,4.106,1.625,1.598,0.000,6.262,0.000,0.000,26.587
3618,4.109,1.625,1.606,0.000,6.295,0.000,-0.001,26.526
3636,4.113,1.625,1.614,0.000,6.329,0.000,0.000,26.519
3654,4.115,1.625,1.622,0.000,6.362,0.000,0.000,26.543
3672,4.117,1.625,1.630,0.000,6.396,0.000,0.000,26.572
3690,4.119,1.625,1.638,0.000,6.429,0.000,-0.001,26.547
3708,4.120,1.625,1.647,0.000,6.463,0.000,0.000,26.575
3726,4.123,1.625,1.655,0.000,6.496,0.000,0.001,26.577
3744,4.126,1.625,1.663,0.000,6.530,0.000,0.000,26.567
3762,4.129,1.625,1.671,0.000,6.563,0.000,0.000,26.581
3780,4.132,1.625,1.679,0.000,6.597,0.000,0.000,26.591
3798,4.134,1.625,1.687,0.000,6.630,0.000,0.001,26.569
3816,4.136,1.625,1.695,0.000,6.664,0.000,0.000,26.580
3834,4.139,1.625,1.703,0.000,6.698,0.000,0.001,26.599
3852,4.142,1.625,1.712,0.000,6.731,0.000,0.000,26.628
3870,4.145,1.625,1.720,0.000,6.765,0.000,0.001,26.574
3888,4.147,1.625,1.728,0.000,6.799,0.000,-0.001,26.617
3906,4.150,1.625,1.736,0.000,6.832,0.000,0.001,26.597
3924,4.153,1.625,1.744,0.000,6.866,0.000,0.000,26.613
3942,4.154,1.625,1.752,0.000,6.900,0.000,-0.001,26.648
3960,4.158,1.625,1.760,0.000,6.933,0.000,0.000,26.608
3978,4.162,1.625,1.768,0.000,6.967,0.000,0.000,26.627
3996,4.163,1.625,1.777,0.000,7.001,0.000,-0.001,26.597
4014,4.166,1.625,1.785,0.000,7.035,0.000,-0.001,26.703
4032,4.170,1.625,1.793,0.000,7.069,0.000,0.001,26.644
4050,4.172,1.625,1.801,0.000,7.103,0.000,0.000,26.617
4068,4.175,1.625,1.809,0.000,7.137,0.000,0.000,26.650
4086,4.177,1.625,1.817,0.000,7.170,0.000,0.000,26.651
4104,4.178,1.625,1.825,0.000,7.204,0.000,0.000,26.708
4122,4.180,1.625,1.833,0.000,7.238,0.000,-0.001,26.654
4140,4.180,1.625,1.842,0.000,7.272,0.000,0.000,26.669
4158,4.182,1.625,1.850,0.000,7.306,0.000,0.000,26.670
4176,4.185,1.625,1.858,0.000,7.340,0.000,0.000,26.678
4194,4.187,1.625,1.866,0.000,7.374,0.000,0.000,26.689
4212,4.190,1.625,1.874,0.000,7.408,0.000,0.000,26.709
4230,4.193,1.625,1.882,0.000,7.442,0.000,0.000,26.722
4248,4.196,1.625,1.890,0.000,7.476,0.000,0.000,26.679
4266,4.199,1.625,1.898,0.000,7.511,0.000,0.000,26.696
4284,4.200,1.602,1.906,0.000,7.544,0.000,0.000,26.718
4302,4.200,1.568,1.914,0.000,7.577,0.000,0.000,26.721
4320,4.200,1.542,1.922,0.000,7.610,0.000,0.000,26.706
4338,4.200,1.511,1.930,0.000,7.642,0.000,0.000,26.736
4356,4.200,1.488,1.937,0.000,7.673,0.000,0.000,26.708
4374,4.200,1.463,1.945,0.000,7.704,0.000,0.000,26.708
4392,4.200,1.441,1.952,0.000,7.735,0.000,0.000,26.697
4410,4.200,1.418,1.959,0.000,7.765,0.000,0.000,26.691
4428,4.200,1.393,1.966,0.000,7.794,0.000,0.000,26.696
4446,4.200,1.372,1.973,0.000,7.823,0.000,0.000,26.695
4464,4.200,1.351,1.980,0.000,7.852,0.000,0.000,26.651
4482,4.200,1.332,1.986,0.000,7.880,0.000,0.000,26.623
4500,4.200,1.312,1.993,0.000,7.908,0.000,0.000,26.602
4518,4.200,1.292,2.000,0.000,7.935,0.000,0.000,26.584
4536,4.200,1.273,2.006,0.000,7.962,0.000,0.000,26.572
4554,4.200,1.257,2.012,0.000,7.989,0.000,0.000,26.578
4572,4.200,1.238,2.018,0.000,8.015,0.000,0.000,26.592
4590,4.200,1.218,2.025,0.000,8.041,0.000,0.000,26.554
4608,4.200,1.200,2.031,0.000,8.066,0.000,0.000,26.555
4626,4.200,1.184,2.037,0.000,8.091,0.000,0.000,26.507
4644,4.200,1.167,2.043,0.000,8.116,0.000,0.000,26.504
4662,4.200,1.148,2.048,0.000,8.140,0.000,0.000,26.458
4680,4.200,1.135,2.054,0.000,8.164,0.000,0.000,26.457
4698,4.200,1.117,2.060,0.000,8.188,0.000,0.000,26.440
4716,4.200,1.101,2.065,0.000,8.211,0.000,0.000,26.383
4734,4.200,1.084,2.071,0.000,8.234,0.000,0.000,26.355
4752,4.200,1.070,2.076,0.000,8.256,0.000,0.000,26.356
4770,4.200,1.055,2.081,0.000,8.279,0.000,0.000,26.351
4788,4.200,1.040,2.087,0.000,8.301,0.000,0.000,26.291
4806,4.200,1.024,2.092,0.000,8.322,0.000,0.000,26.317
4824,4.200,1.010,2.097,0.000,8.344,0.000,0.000,26.271
4842,4.200,0.994,2.102,0.000,8.365,0.000,0.000,26.239
4860,4.200,0.983,2.107,0.000,8.386,0.000,0.000,26.172
4878,4.200,0.970,2.112,0.000,8.406,0.000,0.000,26.169
4896,4.200,0.957,2.116,0.000,8.426,0.000,0.000,26.127
4914,4.200,0.945,2.121,0.000,8.446,0.000,0.000,26.196
4932,4.200,0.933,2.126,0.000,8.466,0.000,0.000,26.183
4950,4.200,0.919,2.131,0.000,8.485,0.000,0.000,26.142
4968,4.200,0.908,2.135,0.000,8.505,0.000,0.000,26.082
4986,4.200,0.895,2.140,0.000,8.524,0.000,0.000,26.053
5004,4.200,0.884,2.144,0.000,8.542,0.000,0.000,26.079
5022,4.200,0.871,2.148,0.000,8.561,0.000,0.000,26.033
5040,4.200,0.860,2.153,0.000,8.579,0.000,0.000,26.019
5058,4.200,0.849,2.157,0.000,8.597,0.000,0.000,25.987
5076,4.200,0.840,2.161,0.000,8.614,0.000,0.000,25.958
5094,4.200,0.828,2.165,0.000,8.632,0.000,0.000,25.954
5112,4.200,0.819,2.170,0.000,8.649,0.000,0.000,25.931
5130,4.200,0.809,2.174,0.000,8.666,0.000,0.000,25.976
5148,4.200,0.801,2.178,0.000,8.683,0.000,0.000,25.863
5166,4.200,0.791,2.182,0.000,8.700,0.000,0.000,25.862
5184,4.200,0.782,2.186,0.000,8.717,0.000,0.000,25.865
5202,4.200,0.774,2.189,0.000,8.733,0.000,0.000,25.872
5220,4.200,0.765,2.193,0.000,8.749,0.000,0.000,25.856
5238,4.200,0.758,2.197,0.000,8.765,0.000,0.000,25.839
5256,4.200,0.750,2.201,0.000,8.781,0.000,0.000,25.809
5274,4.200,0.740,2.205,0.000,8.797,0.000,0.000,25.817
5292,4.200,0.732,2.208,0.000,8.812,0.000,0.000,25.756
5310,4.200,0.724,2.212,0.000,8.827,0.000,0.000,25.730
5328,4.200,0.716,2.216,0.000,8.842,0.000,0.000,25.715
5346,4.200,0.709,2.219,0.000,8.857,0.000,0.000,25.756
5364,4.200,0.701,2.223,0.000,8.872,0.000,0.000,25.744
5382,4.200,0.693,2.226,0.000,8.887,0.000,0.000,25.657
5400,4.200,0.685,2.230,0.000,8.901,0.000,0.000,25.678
5418,4.200,0.678,2.233,0.000,8.916,0.000,0.000,25.656
5436,4.200,0.671,2.236,0.000,8.930,0.000,0.000,25.667
5454,4.200,0.663,2.240,0.000,8.944,0.000,0.000,25.649
5472,4.200,0.654,2.243,0.000,8.958,0.000,0.000,25.627
5490,4.200,0.646,2.246,0.000,8.971,0.000,0.000,25.613
5508,4.200,0.638,2.249,0.000,8.985,0.000,0.000,25.619
5526,4.200,0.630,2.253,0.000,8.998,0.000,0.000,25.640
5544,4.200,0.621,2.256,0.000,9.011,0.000,0.000,25.551
5562,4.200,0.614,2.259,0.000,9.024,0.000,0.000,25.587
5580,4.200,0.607,2.262,0.000,9.037,0.000,0.000,25.565
5598,4.200,0.600,2.265,0.000,9.050,0.000,0.000,25.550
5616,4.200,0.592,2.268,0.000,9.062,0.000,0.000,25.537
5634,4.200,0.586,2.271,0.000,9.075,0.000,0.000,25.532
5652,4.200,0.579,2.274,0.000,9.087,0.000,0.000,25.510
5670,4.200,0.574,2.277,0.000,9.099,0.000,0.000,25.497
5688,4.200,0.568,2.279,0.000,9.111,0.000,0.000,25.548
5706,4.200,0.562,2.282,0.000,9.123,0.000,0.000,25.483
5724,4.200,0.556,2.285,0.000,9.135,0.000,0.000,25.495
5742,4.200,0.549,2.288,0.000,9.146,0.000,0.000,25.456
5760,4.200,0.543,2.291,0.000,9.158,0.000,0.000,25.485
5778,4.200,0.536,2.293,0.000,9.169,0.000,0.000,25.423
5796,4.200,0.529,2.296,0.000,9.180,0.000,0.000,25.454
5814,4.200,0.524,2.299,0.000,9.191,0.000,0.000,25.438
5832,4.200,0.516,2.301,0.000,9.202,0.000,0.000,25.443
5850,4.200,0.510,2.304,0.000,9.213,0.000,0.000,25.463
5868,4.200,0.505,2.306,0.000,9.224,0.000,0.000,25.397
5886,4.200,0.499,2.309,0.000,9.234,0.000,0.000,25.380
5904,4.200,0.495,2.311,0.000,9.245,0.000,0.000,25.393
5922,4.200,0.489,2.314,0.000,9.255,0.000,0.000,25.372
5940,4.200,0.481,2.316,0.000,9.265,0.000,0.000,25.381
5958,4.200,0.476,2.319,0.000,9.275,0.000,0.000,25.396
5976,4.200,0.471,2.321,0.000,9.285,0.000,0.000,25.326
5994,4.200,0.465,2.323,0.000,9.295,0.000,0.000,25.363
6012,4.200,0.460,2.326,0.000,9.305,0.000,0.000,25.361
6030,4.200,0.454,2.328,0.000,9.314,0.000,0.000,25.373
6048,4.200,0.449,2.330,0.000,9.324,0.000,0.000,25.311
6066,4.200,0.444,2.332,0.000,9.333,0.000,0.000,25.325
6084,4.200,0.439,2.335,0.000,9.342,0.000,0.000,25.333
6102,4.200,0.433,2.337,0.000,9.351,0.000,0.000,25.349
6120,4.200,0.428,2.339,0.000,9.361,0.000,0.000,25.293
6138,4.200,0.423,2.341,0.000,9.369,0.000,0.000,25.267
6156,4.200,0.418,2.343,0.000,9.378,0.000,0.000,25.252
6174,4.200,0.414,2.345,0.000,9.387,0.000,0.000,25.288
6192,4.200,0.409,2.347,0.000,9.396,0.000,0.000,25.283
6210,4.200,0.403,2.349,0.000,9.404,0.000,0.000,25.241
6228,4.200,0.398,2.351,0.000,9.413,0.000,0.000,25.252
6246,4.200,0.393,2.353,0.000,9.421,0.000,0.000,25.261
6264,4.200,0.388,2.355,0.000,9.429,0.000,0.000,25.235
6282,4.200,0.383,2.357,0.000,9.437,0.000,0.000,25.247
6300,4.200,0.380,2.359,0.000,9.445,0.000,0.000,25.193
6318,4.200,0.374,2.361,0.000,9.453,0.000,0.000,25.225
6336,4.200,0.369,2.363,0.000,9.461,0.000,0.000,25.226
6354,4.200,0.364,2.365,0.000,9.469,0.000,0.000,25.212
6372,4.200,0.359,2.366,0.000,9.476,0.000,0.000,25.199
6390,4.200,0.355,2.368,0.000,9.484,0.000,0.000,25.220
6408,4.200,0.350,2.370,0.000,9.491,0.000,0.000,25.242
6426,4.200,0.345,2.372,0.000,9.498,0.000,0.000,25.237
6444,4.200,0.342,2.373,0.000,9.506,0.000,0.000,25.210
6462,4.200,0.337,2.375,0.000,9.513,0.000,0.000,25.188
6480,4.200,0.332,2.377,0.000,9.520,0.000,0.000,25.175
6498,4.200,0.328,2.378,0.000,9.527,0.000,0.000,25.185
6516,4.200,0.323,2.380,0.000,9.534,0.000,0.000,25.166
6534,4.200,0.319,2.382,0.000,9.540,0.000,0.000,25.174
6552,4.200,0.315,2.383,0.000,9.547,0.000,0.000,25.179
6570,4.200,0.312,2.385,0.000,9.554,0.000,0.000,25.126
6588,4.200,0.307,2.386,0.000,9.560,0.000,0.000,25.171
6606,4.200,0.303,2.388,0.000,9.567,0.000,0.000,25.164
6624,4.200,0.299,2.389,0.000,9.573,0.000,0.000,25.173
6642,4.200,0.295,2.391,0.000,9.579,0.000,0.000,25.080
6660,4.200,0.292,2.392,0.000,9.585,0.000,0.000,25.140
6678,4.200,0.287,2.394,0.000,9.591,0.000,0.000,25.120
6696,4.200,0.283,2.395,0.000,9.597,0.000,0.000,25.115
6714,4.200,0.280,2.397,0.000,9.603,0.000,0.000,25.093
6732,4.200,0.276,2.398,0.000,9.609,0.000,0.000,25.114
6750,4.200,0.272,2.399,0.000,9.615,0.000,0.000,25.129
6768,4.200,0.268,2.401,0.000,9.620,0.000,0.000,25.120
6786,4.200,0.264,2.402,0.000,9.626,0.000,0.000,25.101
6804,4.200,0.261,2.403,0.000,9.632,0.000,0.000,25.131
6822,4.200,0.257,2.405,0.000,9.637,0.000,0.000,25.106
6840,4.200,0.253,2.406,0.000,9.642,0.000,0.000,25.121
6858,4.200,0.250,2.407,0.000,9.648,0.000,0.000,25.112
6876,4.200,0.246,2.409,0.000,9.653,0.000,0.000,25.069
6894,4.200,0.243,2.410,0.000,9.658,0.000,0.000,25.074
6912,4.200,0.240,2.411,0.000,9.663,0.000,0.000,25.077
6930,4.200,0.236,2.412,0.000,9.668,0.000,0.000,25.063
6948,4.200,0.233,2.413,0.000,9.673,0.000,0.000,25.048
6966,4.200,0.230,2.414,0.000,9.678,0.000,0.000,25.060
6984,4.200,0.226,2.416,0.000,9.683,0.000,0.000,25.071
7002,4.200,0.224,2.417,0.000,9.687,0.000,0.000,25.043
7020,4.200,0.220,2.418,0.000,9.692,0.000,0.000,25.050
7038,4.200,0.217,2.419,0.000,9.697,0.000,0.000,25.049
7056,4.200,0.214,2.420,0.000,9.701,0.000,0.000,25.080
7074,4.200,0.211,2.421,0.000,9.706,0.000,0.000,25.071
7092,4.200,0.208,2.422,0.000,9.710,0.000,0.000,25.090
7110,4.200,0.206,2.423,0.000,9.714,0.000,0.000,25.027
7128,4.200,0.202,2.424,0.000,9.719,0.000,0.000,25.049
7146,4.200,0.199,2.425,0.000,9.723,0.000,0.000,25.039
7164,4.200,0.196,2.426,0.000,9.727,0.000,0.000,25.049
7182,4.200,0.194,2.427,0.000,9.731,0.000,0.000,25.043
7200,4.200,0.190,2.428,0.000,9.735,0.000,0.000,25.046
7218,4.200,0.189,2.429,0.000,9.739,0.000,0.000,24.994
7236,4.200,0.185,2.430,0.000,9.743,0.000,0.000,25.016
7254,4.200,0.183,2.431,0.000,9.747,0.000,0.000,25.042
7272,4.200,0.180,2.432,0.000,9.751,0.000,0.000,25.010
7290,4.200,0.177,2.433,0.000,9.754,0.000,0.000,25.061
7308,4.200,0.175,2.434,0.000,9.758,0.000,0.000,25.046
7326,4.200,0.173,2.434,0.000,9.762,0.000,0.000,25.044
7344,4.200,0.170,2.435,0.000,9.765,0.000,0.000,25.030
7362,4.200,0.167,2.436,0.000,9.769,0.000,0.000,24.994
7380,4.200,0.165,2.437,0.000,9.772,0.000,0.000,25.021
7398,4.200,0.163,2.438,0.000,9.776,0.000,0.000,25.021
7416,4.200,0.160,2.439,0.000,9.779,0.000,0.000,25.013
7434,4.200,0.159,2.439,0.000,9.783,0.000,0.000,25.036
7452,4.200,0.156,2.440,0.000,9.786,0.000,0.000,25.022
7470,4.200,0.153,2.441,0.000,9.789,0.000,0.000,24.988
7488,4.200,0.151,2.442,0.000,9.792,0.000,0.000,24.988
7506,4.200,0.149,2.442,0.000,9.795,0.000,0.000,24.977
7524,4.200,0.147,2.443,0.000,9.799,0.000,0.000,24.977
7542,4.200,0.144,2.444,0.000,9.802,0.000,0.000,25.014
7560,4.200,0.142,2.445,0.000,9.805,0.000,0.000,24.996
7578,4.200,0.141,2.445,0.000,9.808,0.000,0.000,25.012
7596,4.200,0.138,2.446,0.000,9.811,0.000,0.000,24.954
7614,4.200,0.136,2.447,0.000,9.813,0.000,0.000,24.986
7632,4.200,0.135,2.447,0.000,9.816,0.000,0.000,24.957
7650,4.200,0.132,2.448,0.000,9.819,0.000,0.000,24.991
7668,4.200,0.130,2.449,0.000,9.822,0.000,0.000,24.926
7686,4.200,0.128,2.449,0.000,9.825,0.000,0.000,24.981
7704,4.200,0.126,2.450,0.000,9.827,0.000,0.000,24.960
7722,4.200,0.125,2.451,0.000,9.830,0.000,0.000,24.997
7740,4.200,0.123,2.451,0.000,9.832,0.000,0.000,24.982
7758,4.200,0.121,2.452,0.000,9.835,0.000,0.000,24.974
7776,4.200,0.120,2.452,0.000,9.838,0.000,0.000,24.937
7794,4.200,0.118,2.453,0.000,9.840,0.000,0.000,24.947
7812,4.200,0.116,2.454,0.000,9.843,0.000,0.000,24.948
7830,4.200,0.115,2.454,0.000,9.845,0.000,0.000,24.950
7848,4.200,0.113,2.455,0.000,9.847,0.000,0.000,24.953
7866,4.200,0.111,2.455,0.000,9.850,0.000,0.000,24.987
7884,4.200,0.110,2.456,0.000,9.852,0.000,0.000,24.990
7902,4.200,0.108,2.456,0.000,9.854,0.000,0.000,24.975
7920,4.200,0.107,2.457,0.000,9.857,0.000,0.000,24.936
7938,4.200,0.105,2.458,0.000,9.859,0.000,0.000,24.990
7956,4.200,0.104,2.458,0.000,9.861,0.000,0.000,24.928
7974,4.200,0.103,2.459,0.000,9.863,0.000,0.000,24.954
7992,4.200,0.101,2.459,0.000,9.865,0.000,0.000,24.970
8010,4.200,0.100,2.460,0.000,9.867,0.000,0.000,24.977
8028,4.200,0.098,2.460,0.000,9.869,0.000,0.000,25.005
8046,4.200,0.097,2.461,0.000,9.872,0.000,0.000,24.951
8064,4.200,0.095,2.461,0.000,9.874,0.000,0.000,24.981
8082,4.200,0.094,2.462,0.000,9.876,0.000,0.000,25.003
8100,4.200,0.093,2.462,0.000,9.878,0.000,0.000,24.996
8118,4.200,0.092,2.462,0.000,9.879,0.000,0.000,24.950
8136,4.200,0.091,2.463,0.000,9.881,0.000,0.000,24.973
8154,4.200,0.089,2.463,0.000,9.883,0.000,0.000,24.945
8172,4.200,0.088,2.464,0.000,9.885,0.000,0.000,24.963
8190,4.200,0.086,2.464,0.000,9.887,0.000,0.000,25.012
8208,4.200,0.085,2.465,0.000,9.889,0.000,0.000,24.989
8226,4.200,0.085,2.465,0.000,9.891,0.000,0.000,24.984
8244,4.200,0.083,2.466,0.000,9.892,0.000,0.000,24.970
8262,4.200,0.082,2.466,0.000,9.894,0.000,0.000,24.990
8280,4.200,0.081,2.466,0.000,9.896,0.000,0.000,24.964
8298,4.200,0.080,2.467,0.000,9.897,0.000,0.000,24.974
8316,4.200,0.079,2.467,0.000,9.899,0.000,0.000,24.949
8334,4.200,0.078,2.468,0.000,9.901,0.000,0.000,24.994
8352,4.200,0.077,2.468,0.000,9.902,0.000,0.000,24.919
8370,4.200,0.076,2.468,0.000,9.904,0.000,0.000,24.981
8388,4.200,0.074,2.469,0.000,9.906,0.000,0.000,24.958
8406,4.200,0.073,2.469,0.000,9.907,0.000,0.000,24.964
8424,4.200,0.072,2.469,0.000,9.909,0.000,0.000,24.989
8442,4.200,0.072,2.470,0.000,9.910,0.000,0.000,24.927
8460,4.200,0.071,2.470,0.000,9.912,0.000,0.000,24.939
8478,4.200,0.070,2.470,0.000,9.913,0.000,0.000,24.962
8496,4.200,0.069,2.471,0.000,9.915,0.000,0.000,24.949
8514,4.200,0.068,2.471,0.000,9.916,0.000,0.000,24.977
8532,4.200,0.068,2.471,0.000,9.917,0.000,0.000,24.951
8550,4.200,0.066,2.472,0.000,9.919,0.000,0.000,24.953
8567,4.195,0.000,2.472,0.000,9.920,0.000,0.000,24.961
8585,4.194,0.000,2.472,0.000,9.920,0.000,0.000,24.974
8603,4.193,0.000,2.472,0.000,9.920,0.000,0.000,24.962
8621,4.193,0.000,2.472,0.000,9.920,0.000,0.000,24.936
8639,4.192,0.000,2.472,0.000,9.920,0.000,0.000,24.980
8657,4.192,0.000,2.472,0.000,9.920,0.000,0.000,24.940
8675,4.192,0.000,2.472,0.000,9.920,0.000,0.000,24.971
8693,4.191,0.000,2.472,0.000,9.920,0.000,0.000,24.975
8711,4.191,0.000,2.472,0.000,9.920,0.000,0.000,24.994
8729,4.191,0.000,2.472,0.000,9.920,0.000,0.000,24.918
8747,4.190,0.000,2.472,0.000,9.920,0.000,0.000,24.963
8765,4.190,0.000,2.472,0.000,9.920,0.000,0.000,24.961
8783,4.190,0.000,2.472,0.000,9.920,0.000,0.000,24.921
8801,4.190,0.000,2.472,0.000,9.920,0.000,0.000,24.951
8819,4.190,0.000,2.472,0.000,9.920,0.000,0.000,24.966
8837,4.189,0.000,2.472,0.000,9.920,0.000,0.000,24.944
8855,4.189,0.000,2.472,0.000,9.920,0.000,0.000,24.917
8873,4.189,0.000,2.472,0.000,9.920,0.000,0.000,24.979
8891,4.189,0.000,2.472,0.000,9.920,0.000,0.000,24.945
8909,4.189,0.000,2.472,0.000,9.920,0.000,0.000,24.941
8927,4.189,0.000,2.472,0.000,9.920,0.000,0.000,24.950
8945,4.188,0.000,2.472,0.000,9.920,0.000,0.000,24.933
8963,4.188,0.000,2.472,0.000,9.920,0.000,0.000,24.939
8981,4.188,0.000,2.472,0.000,9.920,0.000,0.000,24.934
8999,4.188,0.000,2.472,0.000,9.920,0.000,0.000,24.947
9017,4.188,0.000,2.472,0.000,9.920,0.000,0.000,24.930
9035,4.188,0.000,2.472,0.000,9.920,0.000,0.000,24.917
9053,4.188,0.000,2.472,0.000,9.920,0.000,0.000,24.966
9071,4.187,0.000,2.472,0.000,9.920,0.000,0.000,24.927
9089,4.187,0.000,2.472,0.000,9.920,0.000,0.000,24.948
9107,4.187,0.000,2.472,0.000,9.920,0.000,0.000,24.957
9125,4.187,0.000,2.472,0.000,9.920,0.000,0.000,24.948
9143,4.187,0.000,2.472,0.000,9.920,0.000,0.000,24.927
9161,4.187,0.000,2.472,0.000,9.920,0.000,0.000,24.965
9179,4.187,0.000,2.472,0.000,9.920,0.000,0.000,24.998
9197,4.187,0.000,2.472,0.000,9.920,0.000,0.000,24.966
9215,4.186,0.000,2.472,0.000,9.920,0.000,0.000,24.915
9233,4.186,0.000,2.472,0.000,9.920,0.000,0.000,24.934
9251,4.186,0.000,2.472,0.000,9.920,0.000,0.000,24.944
9269,4.186,0.000,2.472,0.000,9.920,0.000,0.000,24.961
9287,4.186,0.000,2.472,0.000,9.920,0.000,0.000,24.967
9305,4.186,0.000,2.472,0.000,9.920,0.000,0.000,24.930
9323,4.186,0.000,2.472,0.000,9.920,0.000,0.000,24.937
9341,4.186,0.000,2.472,0.000,9.920,0.000,0.000,24.959
9359,4.186,0.000,2.472,0.000,9.920,0.000,0.000,24.945
9377,4.186,0.000,2.472,0.000,9.920,0.000,0.000,24.957
9395,4.185,0.000,2.472,0.000,9.920,0.000,0.000,24.982
9413,4.185,0.000,2.472,0.000,9.920,0.000,0.000,24.945
9431,4.185,0.000,2.472,0.000,9.920,0.000,0.000,24.981
9449,4.185,0.000,2.472,0.000,9.920,0.000,0.000,24.962
9467,4.185,0.000,2.472,0.000,9.920,0.000,0.000,24.953
9485,4.185,0.000,2.472,0.000,9.920,0.000,0.000,24.943
9503,4.185,0.000,2.472,0.000,9.920,0.000,0.000,24.926
9521,4.185,0.000,2.472,0.000,9.920,0.000,0.000,24.935
9539,4.185,0.000,2.472,0.000,9.920,0.000,0.000,24.917
9557,4.185,0.000,2.472,0.000,9.920,0.000,0.000,24.971
9575,4.185,0.000,2.472,0.000,9.920,0.000,0.000,24.923
9593,4.184,0.000,2.472,0.000,9.920,0.000,0.000,24.942
9611,4.184,0.000,2.472,0.000,9.920,0.000,0.000,24.914
9629,4.184,0.000,2.472,0.000,9.920,0.000,0.000,24.978
9647,4.184,0.000,2.472,0.000,9.920,0.000,0.000,24.915
9665,4.184,0.000,2.472,0.000,9.920,0.000,0.000,24.967
9683,4.184,0.000,2.472,0.000,9.920,0.000,0.000,24.959
9701,4.184,0.000,2.472,0.000,9.920,0.000,0.000,24.965
9719,4.184,0.000,2.472,0.000,9.920,0.000,0.000,24.965
9737,4.184,0.000,2.472,0.000,9.920,0.000,0.000,25.005
9755,4.184,0.000,2.472,0.000,9.920,0.000,0.000,24.951
9773,4.184,0.000,2.472,0.000,9.920,0.000,0.000,24.952
9791,4.184,0.000,2.472,0.000,9.920,0.000,0.000,24.950
9809,4.184,0.000,2.472,0.000,9.920,0.000,0.000,24.957
9827,4.184,0.000,2.472,0.000,9.920,0.000,0.000,24.944
9845,4.184,0.000,2.472,0.000,9.920,0.000,0.000,24.941
9863,4.184,0.000,2.472,0.000,9.920,0.000,0.000,24.934
9881,4.183,0.000,2.472,0.000,9.920,0.000,0.000,24.949
9899,4.183,0.000,2.472,0.000,9.920,0.000,0.000,24.921
9917,4.183,0.000,2.472,0.000,9.920,0.000,0.000,24.929
9935,4.183,0.000,2.472,0.000,9.920,0.000,0.000,24.938
9953,4.183,0.000,2.472,0.000,9.920,0.000,0.000,24.932
9971,4.183,0.000,2.472,0.000,9.920,0.000,0.000,24.935
9989,4.183,0.000,2.472,0.000,9.920,0.000,0.000,24.886
10007,4.183,0.000,2.472,0.000,9.920,0.000,0.000,24.978
10025,4.183,0.000,2.472,0.000,9.920,0.000,0.000,24.983
10043,4.183,0.000,2.472,0.000,9.920,0.000,0.000,24.976
10061,4.183,0.000,2.472,0.000,9.920,0.000,0.000,24.975
10079,4.183,0.000,2.472,0.000,9.920,0.000,0.000,24.930
10097,4.183,0.000,2.472,0.000,9.920,0.000,0.000,24.946
10115,4.183,0.000,2.472,0.000,9.920,0.000,0.000,24.920
10133,4.183,0.000,2.472,0.000,9.920,0.000,0.000,24.971
10151,4.183,0.000,2.472,0.000,9.920,0.000,0.000,24.922
10169,4.183,0.000,2.472,0.000,9.920,0.000,0.000,24.975
10187,4.182,0.000,2.472,0.000,9.920,0.000,0.000,24.914
10205,4.182,0.000,2.472,0.000,9.920,0.000,0.000,24.932
10223,4.182,0.000,2.472,0.000,9.920,0.000,0.000,24.948
10241,4.182,0.000,2.472,0.000,9.920,0.000,0.000,24.965
10259,4.182,0.000,2.472,0.000,9.920,0.000,0.000,24.944
10277,4.182,0.000,2.472,0.000,9.920,0.000,0.000,25.021
10295,4.182,0.000,2.472,0.000,9.920,0.000,0.000,25.033
10313,4.182,0.000,2.472,0.000,9.920,0.000,0.000,25.023
10331,4.182,0.000,2.472,0.000,9.920,0.000,0.000,24.993
10349,4.182,0.000,2.472,0.000,9.920,0.000,0.000,24.997
10367,4.182,0.000,2.472,0.000,9.920,0.000,0.000,24.999
10385,4.182,0.000,2.472,0.000,9.920,0.000,0.000,24.966
10403,4.182,0.000,2.472,0.000,9.920,0.000,0.000,25.015
10421,4.182,0.000,2.472,0.000,9.920,0.000,0.000,25.063
10439,4.182,0.000,2.472,0.000,9.920,0.000,0.000,25.134
10457,4.182,0.000,2.472,0.000,9.920,0.000,0.000,25.172
10475,4.182,0.000,2.472,0.000,9.920,0.000,0.000,25.287
10493,4.182,0.000,2.472,0.000,9.920,0.000,0.000,25.291
10511,4.182,0.000,2.472,0.000,9.920,0.000,0.000,25.395
10529,4.182,0.000,2.472,0.000,9.920,0.000,0.000,25.465
10547,4.182,0.000,2.472,0.000,9.920,0.000,0.000,25.442
10565,4.182,0.000,2.472,0.000,9.920,0.000,0.000,25.404
10583,4.182,0.000,2.472,0.000,9.920,0.000,0.000,25.395
10601,4.182,0.000,2.472,0.000,9.920,0.000,0.000,25.369
10619,4.181,0.000,2.472,0.000,9.920,0.000,0.000,25.335
10637,4.181,0.000,2.472,0.000,9.920,0.000,0.000,25.331
10655,4.181,0.000,2.472,0.000,9.920,0.000,0.000,25.299
10673,4.181,0.000,2.472,0.000,9.920,0.000,0.000,25.253
10691,4.181,0.000,2.472,0.000,9.920,0.000,0.000,25.255
10709,4.181,0.000,2.472,0.000,9.920,0.000,0.000,25.293
10727,4.181,0.000,2.472,0.000,9.920,0.000,0.000,25.264
10745,4.181,0.000,2.472,0.000,9.920,0.000,0.000,25.238
10763,4.181,0.000,2.472,0.000,9.920,0.000,0.000,25.235
10781,4.181,0.000,2.472,0.000,9.920,0.000,0.000,25.246
10799,4.181,0.000,2.472,0.000,9.920,0.000,0.000,25.245
10817,4.181,0.000,2.472,0.000,9.920,0.000,0.000,25.239
10835,4.181,0.000,2.472,0.000,9.920,0.000,0.000,25.198
10853,4.181,0.000,2.472,0.000,9.920,0.000,0.000,25.174
10871,4.181,0.000,2.472,0.000,9.920,0.000,0.000,25.225
10889,4.181,0.000,2.472,0.000,9.920,0.000,0.000,25.185
10907,4.181,0.000,2.472,0.000,9.920,0.000,0.000,25.229
10925,4.181,0.000,2.472,0.000,9.920,0.000,0.000,25.212
10943,4.181,0.000,2.472,0.000,9.920,0.000,0.000,25.214
10961,4.181,0.000,2.472,0.000,9.920,0.000,0.000,25.165
10979,4.181,0.000,2.472,0.000,9.920,0.000,0.000,25.232
10997,4.181,0.000,2.472,0.000,9.920,0.000,0.000,25.229
11015,4.181,0.000,2.472,0.000,9.920,0.000,0.000,25.261
11033,4.181,0.000,2.472,0.000,9.920,0.000,0.000,25.248
11051,4.181,0.000,2.472,0.000,9.920,0.000,0.000,25.227
11069,4.181,0.000,2.472,0.000,9.920,0.000,0.000,25.210
11087,4.180,0.000,2.472,0.000,9.920,0.000,0.000,25.269
11105,4.180,0.000,2.472,0.000,9.920,0.000,0.000,25.241
11123,4.181,0.000,2.472,0.000,9.920,0.000,0.000,25.305
11141,4.180,0.000,2.472,0.000,9.920,0.000,0.000,25.297
11159,4.180,0.000,2.472,0.000,9.920,0.000,0.000,25.316
11177,4.180,0.000,2.472,0.000,9.920,0.000,0.000,25.272
11195,4.180,0.000,2.472,0.000,9.920,0.000,0.000,25.282
11213,4.180,0.000,2.472,0.000,9.920,0.000,0.000,25.293
11231,4.180,0.000,2.472,0.000,9.920,0.000,0.000,25.257
11249,4.180,0.000,2.472,0.000,9.920,0.000,0.000,25.267
11267,4.180,0.000,2.472,0.000,9.920,0.000,0.000,25.273
11285,4.180,0.000,2.472,0.000,9.920,0.000,0.000,25.282
11303,4.180,0.000,2.472,0.000,9.920,0.000,0.000,25.288
11321,4.180,0.000,2.472,0.000,9.920,0.000,0.000,25.316
11339,4.180,0.000,2.472,0.000,9.920,0.000,0.000,25.245
11357,4.180,0.000,2.472,0.000,9.920,0.000,0.000,25.286
11375,4.180,0.000,2.472,0.000,9.920,0.000,0.000,25.315
11393,4.180,0.000,2.472,0.000,9.920,0.000,0.000,25.345
11411,4.180,0.000,2.472,0.000,9.920,0.000,0.000,25.315
11429,4.180,0.000,2.472,0.000,9.920,0.000,0.000,25.301
11447,4.180,0.000,2.472,0.000,9.920,0.000,0.000,25.327
11465,4.180,0.000,2.472,0.000,9.920,0.000,0.000,25.371
11483,4.180,0.000,2.472,0.000,9.920,0.000,0.000,25.324
11501,4.180,0.000,2.472,0.000,9.920,0.000,0.000,25.364
11519,4.180,0.000,2.472,0.000,9.920,0.000,0.000,25.363
11537,4.180,0.000,2.472,0.000,9.920,0.000,0.000,25.352
11555,4.180,0.000,2.472,0.000,9.920,0.000,0.000,25.370
11573,4.180,0.000,2.472,0.000,9.920,0.000,0.000,25.366
11591,4.180,0.000,2.472,0.000,9.920,0.000,0.000,25.391
11609,4.180,0.000,2.472,0.000,9.920,0.000,0.000,25.420
11627,4.180,0.000,2.472,0.000,9.920,0.000,0.000,25.393
11645,4.180,0.000,2.472,0.000,9.920,0.000,0.000,25.369
11663,4.180,0.000,2.472,0.000,9.920,0.000,0.000,25.420
11681,4.179,0.000,2.472,0.000,9.920,0.000,0.000,25.390
11699,4.179,0.000,2.472,0.000,9.920,0.000,0.000,25.374
11717,4.180,0.000,2.472,0.000,9.920,0.000,0.000,25.389
11735,4.180,0.000,2.472,0.000,9.920,0.000,0.000,25.346
11753,4.179,0.000,2.472,0.000,9.920,0.000,0.000,25.368
11771,4.179,0.000,2.472,0.000,9.920,0.000,0.000,25.420
11789,4.179,0.000,2.472,0.000,9.920,0.000,0.000,25.396
11807,4.179,0.000,2.472,0.000,9.920,0.000,0.000,25.399
11825,4.179,0.000,2.472,0.000,9.920,0.000,0.000,25.412
11843,4.179,0.000,2.472,0.000,9.920,0.000,0.000,25.431
11861,4.179,0.000,2.472,0.000,9.920,0.000,0.000,25.371
11879,4.179,0.000,2.472,0.000,9.920,0.000,0.000,25.353
11897,4.179,0.000,2.472,0.000,9.920,0.000,0.000,25.389
11915,4.179,0.000,2.472,0.000,9.920,0.000,0.000,25.408
11933,4.179,0.000,2.472,0.000,9.920,0.000,0.000,25.376
11951,4.179,0.000,2.472,0.000,9.920,0.000,0.000,25.382
11969,4.179,0.000,2.472,0.000,9.920,0.000,0.000,25.428
11987,4.179,0.000,2.472,0.000,9.920,0.000,0.000,25.408
12005,4.179,0.000,2.472,0.000,9.920,0.000,0.000,25.467
12023,4.179,0.000,2.472,0.000,9.920,0.000,0.000,25.404
12041,4.179,0.000,2.472,0.000,9.920,0.000,0.000,25.393
12059,4.179,0.000,2.472,0.000,9.920,0.000,0.000,25.394
12077,4.179,0.000,2.472,0.000,9.920,0.000,0.000,25.422
12095,4.179,0.000,2.472,0.000,9.920,0.000,0.000,25.420
12113,4.179,0.000,2.472,0.000,9.920,0.000,0.000,25.399
12131,4.179,0.000,2.472,0.000,9.920,0.000,0.000,25.385
12149,4.179,0.000,2.472,0.000,9.920,0.000,0.000,25.415
12166,3.109,-16.747,2.472,0.005,9.920,0.015,-1.068,25.389
12184,2.931,-16.747,2.472,0.088,9.920,0.266,-0.008,27.783
12202,2.782,-16.747,2.472,0.172,9.920,0.505,-0.008,31.243
12220,3.919,0.000,2.472,0.226,9.920,0.650,0.011,35.144
12238,4.004,0.000,2.472,0.226,9.920,0.650,0.003,36.217
12256,4.034,0.000,2.472,0.226,9.920,0.650,0.001,36.240
12274,4.049,0.000,2.472,0.226,9.920,0.650,0.001,35.772
12292,4.059,0.000,2.472,0.226,9.920,0.650,0.000,35.293
12310,4.065,0.000,2.472,0.226,9.920,0.650,0.000,34.779
12328,4.071,0.000,2.472,0.226,9.920,0.650,0.000,34.265
12346,4.074,0.000,2.472,0.226,9.920,0.650,0.000,33.827
12364,4.078,0.000,2.472,0.226,9.920,0.650,0.000,33.378
12382,4.080,0.000,2.472,0.226,9.920,0.650,0.000,32.896
12400,4.082,0.000,2.472,0.226,9.920,0.650,0.000,32.472
12418,4.083,0.000,2.472,0.226,9.920,0.650,0.000,32.093
12436,4.084,0.000,2.472,0.226,9.920,0.650,0.000,31.771
12454,4.085,0.000,2.472,0.226,9.920,0.650,0.000,31.477
12472,4.085,0.000,2.472,0.226,9.920,0.650,0.000,31.080
12490,4.086,0.000,2.472,0.226,9.920,0.650,0.000,30.786
12508,4.086,0.000,2.472,0.226,9.920,0.650,0.000,30.494
12526,4.086,0.000,2.472,0.226,9.920,0.650,0.000,30.220
12544,4.086,0.000,2.472,0.226,9.920,0.650,0.000,29.959
12562,4.087,0.000,2.472,0.226,9.920,0.650,0.000,29.761
12580,4.087,0.000,2.472,0.226,9.920,0.650,0.000,29.479
12598,4.087,0.000,2.472,0.226,9.920,0.650,0.000,29.296
12616,4.087,0.000,2.472,0.226,9.920,0.650,0.000,29.109
12634,4.087,0.000,2.472,0.226,9.920,0.650,0.000,28.937
12652,4.087,0.000,2.472,0.226,9.920,0.650,0.000,28.731
12670,4.087,0.000,2.472,0.226,9.920,0.650,0.000,28.560
12688,4.087,0.000,2.472,0.226,9.920,0.650,0.000,28.460
12706,4.087,0.000,2.472,0.226,9.920,0.650,0.000,28.258
12724,4.087,0.000,2.472,0.226,9.920,0.650,0.000,28.125
12742,4.087,0.000,2.472,0.226,9.920,0.650,0.000,27.982
12760,4.088,0.000,2.472,0.226,9.920,0.650,0.000,27.865
12778,4.088,0.000,2.472,0.226,9.920,0.650,0.000,27.743
12796,4.088,0.000,2.472,0.226,9.920,0.650,0.000,27.646
12814,4.088,0.000,2.472,0.226,9.920,0.650,0.000,27.506
12832,4.088,0.000,2.472,0.226,9.920,0.650,0.000,27.434
12850,4.088,0.000,2.472,0.226,9.920,0.650,0.000,27.356
12868,4.088,0.000,2.472,0.226,9.920,0.650,0.000,27.241
12886,4.088,0.000,2.472,0.226,9.920,0.650,0.000,27.155
12904,4.088,0.000,2.472,0.226,9.920,0.650,0.000,27.100
12922,4.088,0.000,2.472,0.226,9.920,0.650,0.000,27.003
12940,4.088,0.000,2.472,0.226,9.920,0.650,0.000,26.872
12958,4.088,0.000,2.472,0.226,9.920,0.650,0.000,26.805
12976,4.088,0.000,2.472,0.226,9.920,0.650,0.000,26.787
12994,4.088,0.000,2.472,0.226,9.920,0.650,0.000,26.667
13012,4.088,0.000,2.472,0.226,9.920,0.650,0.000,26.637
13030,4.088,0.000,2.472,0.226,9.920,0.650,0.000,26.546
13048,4.088,0.000,2.472,0.226,9.920,0.650,0.000,26.484
13066,4.088,0.000,2.472,0.226,9.920,0.650,0.000,26.439
13084,4.088,0.000,2.472,0.226,9.920,0.650,0.000,26.404
13102,4.088,0.000,2.472,0.226,9.920,0.650,0.000,26.347
13120,4.088,0.000,2.472,0.226,9.920,0.650,0.000,26.316
13138,4.088,0.000,2.472,0.226,9.920,0.650,0.000,26.238
13156,4.088,0.000,2.472,0.226,9.920,0.650,0.000,26.216
13174,4.088,0.000,2.472,0.226,9.920,0.650,0.000,26.155
13192,4.088,0.000,2.472,0.226,9.920,0.650,0.000,26.087
13210,4.088,0.000,2.472,0.226,9.920,0.650,0.000,26.081
13228,4.088,0.000,2.472,0.226,9.920,0.650,0.000,26.006
13246,4.088,0.000,2.472,0.226,9.920,0.650,0.000,26.025
13264,4.088,0.000,2.472,0.226,9.920,0.650,0.000,25.975
13282,4.088,0.000,2.472,0.226,9.920,0.650,0.000,25.959
13300,4.088,0.000,2.472,0.226,9.920,0.650,0.000,25.924
13318,4.088,0.000,2.472,0.226,9.920,0.650,0.000,25.907
13336,4.088,0.000,2.472,0.226,9.920,0.650,0.000,25.868
13354,4.088,0.000,2.472,0.226,9.920,0.650,0.000,25.832
13372,4.088,0.000,2.472,0.226,9.920,0.650,0.000,25.818
13390,4.088,0.000,2.472,0.226,9.920,0.650,0.000,25.768
13408,4.088,0.000,2.472,0.226,9.920,0.650,0.000,25.733
13426,4.088,0.000,2.472,0.226,9.920,0.650,0.000,25.711
13444,4.088,0.000,2.472,0.226,9.920,0.650,0.000,25.752
13462,4.088,0.000,2.472,0.226,9.920,0.650,0.000,25.657
13480,4.088,0.000,2.472,0.226,9.920,0.650,0.000,25.667
13498,4.088,0.000,2.472,0.226,9.920,0.650,0.000,25.608
13516,4.088,0.000,2.472,0.226,9.920,0.650,0.000,25.590
13534,4.088,0.000,2.472,0.226,9.920,0.650,0.000,25.570
13552,4.088,0.000,2.472,0.226,9.920,0.650,0.000,25.586
13570,4.089,0.000,2.472,0.226,9.920,0.650,0.000,25.581
13588,4.089,0.000,2.472,0.226,9.920,0.650,0.000,25.498
13606,4.089,0.000,2.472,0.226,9.920,0.650,0.000,25.519
13624,4.089,0.000,2.472,0.226,9.920,0.650,0.000,25.486
13642,4.089,0.000,2.472,0.226,9.920,0.650,0.000,25.471
13660,4.088,0.000,2.472,0.226,9.920,0.650,0.000,25.466
13678,4.089,0.000,2.472,0.226,9.920,0.650,0.000,25.458
13696,4.089,0.000,2.472,0.226,9.920,0.650,0.000,25.441
13714,4.089,0.000,2.472,0.226,9.920,0.650,0.000,25.410
13732,4.089,0.000,2.472,0.226,9.920,0.650,0.000,25.395
13750,4.089,0.000,2.472,0.226,9.920,0.650,0.000,25.344
13768,4.089,0.000,2.472,0.226,9.920,0.650,0.000,25.388
13786,4.089,0.000,2.472,0.226,9.920,0.650,0.000,25.349
13804,4.089,0.000,2.472,0.226,9.920,0.650,0.000,25.375
13822,4.089,0.000,2.472,0.226,9.920,0.650,0.000,25.375
13840,4.089,0.000,2.472,0.226,9.920,0.650,0.000,25.345
13858,4.089,0.000,2.472,0.226,9.920,0.650,0.000,25.323
13876,4.089,0.000,2.472,0.226,9.920,0.650,0.000,25.284
13894,4.089,0.000,2.472,0.226,9.920,0.650,0.000,25.360
13912,4.089,0.000,2.472,0.226,9.920,0.650,0.000,25.274
13930,4.089,0.000,2.472,0.226,9.920,0.650,0.000,25.255
13948,4.089,0.000,2.472,0.226,9.920,0.650,0.000,25.253
13966,4.089,0.000,2.472,0.226,9.920,0.650,0.000,25.225
13984,4.089,0.000,2.472,0.226,9.920,0.650,0.000,25.248
14002,4.089,0.000,2.472,0.226,9.920,0.650,0.000,25.240
14020,4.089,0.000,2.472,0.226,9.920,0.650,0.000,25.189
14038,4.089,0.000,2.472,0.226,9.920,0.650,0.000,25.210
14056,4.089,0.000,2.472,0.226,9.920,0.650,0.000,25.206
14074,4.089,0.000,2.472,0.226,9.920,0.650,0.000,25.189
14092,4.089,0.000,2.472,0.226,9.920,0.650,0.000,25.164
14110,4.089,0.000,2.472,0.226,9.920,0.650,0.000,25.180
14128,4.089,0.000,2.472,0.226,9.920,0.650,0.000,25.190
14146,4.089,0.000,2.472,0.226,9.920,0.650,0.000,25.189
14164,4.089,0.000,2.472,0.226,9.920,0.650,0.000,25.133
14182,4.089,0.000,2.472,0.226,9.920,0.650,0.000,25.140
14200,4.089,0.000,2.472,0.226,9.920,0.650,0.000,25.119
14218,4.089,0.000,2.472,0.226,9.920,0.650,0.000,25.118
14236,4.089,0.000,2.472,0.226,9.920,0.650,0.000,25.102
14254,4.089,0.000,2.472,0.226,9.920,0.650,0.000,25.118
14272,4.089,0.000,2.472,0.226,9.920,0.650,0.000,25.106
14290,4.089,0.000,2.472,0.226,9.920,0.650,0.000,25.123
14308,4.089,0.000,2.472,0.226,9.920,0.650,0.000,25.070
14326,4.089,0.000,2.472,0.226,9.920,0.650,0.000,25.089
14344,4.089,0.000,2.472,0.226,9.920,0.650,0.000,25.086
14362,4.089,0.000,2.472,0.226,9.920,0.650,0.000,25.039
14380,4.089,0.000,2.472,0.226,9.920,0.650,0.000,25.076
14398,4.089,0.000,2.472,0.226,9.920,0.650,0.000,25.075
14416,4.089,0.000,2.472,0.226,9.920,0.650,0.000,25.045
14434,4.089,0.000,2.472,0.226,9.920,0.650,0.000,25.052
14452,4.089,0.000,2.472,0.226,9.920,0.650,0.000,25.034
14470,4.089,0.000,2.472,0.226,9.920,0.650,0.000,25.031
14488,4.089,0.000,2.472,0.226,9.920,0.650,0.000,25.063
14506,4.089,0.000,2.472,0.226,9.920,0.650,0.000,25.032
14524,4.089,0.000,2.472,0.226,9.920,0.650,0.000,25.042
14542,4.089,0.000,2.472,0.226,9.920,0.650,0.000,25.047
14560,4.089,0.000,2.472,0.226,9.920,0.650,0.000,24.992
14578,4.089,0.000,2.472,0.226,9.920,0.650,0.000,24.976
14596,4.089,0.000,2.472,0.226,9.920,0.650,0.000,24.998
14614,4.089,0.000,2.472,0.226,9.920,0.650,0.000,24.979
14632,4.089,0.000,2.472,0.226,9.920,0.650,0.000,25.028
14650,4.089,0.000,2.472,0.226,9.920,0.650,0.000,24.973
14668,4.089,0.000,2.472,0.226,9.920,0.650,0.000,25.008
14686,4.089,0.000,2.472,0.226,9.920,0.650,0.000,24.985
14704,4.089,0.000,2.472,0.226,9.920,0.650,0.000,24.976
14722,4.089,0.000,2.472,0.226,9.920,0.650,0.000,24.999
14740,4.089,0.000,2.472,0.226,9.920,0.650,0.000,24.969
14758,4.089,0.000,2.472,0.226,9.920,0.650,0.000,24.932
14776,4.089,0.000,2.472,0.226,9.920,0.650,0.000,24.985
14794,4.089,0.000,2.472,0.226,9.920,0.650,0.000,24.971
14812,4.089,0.000,2.472,0.226,9.920,0.650,0.000,24.971
14830,4.089,0.000,2.472,0.226,9.920,0.650,0.000,24.906
14848,4.089,0.000,2.472,0.226,9.920,0.650,0.000,24.915
14866,4.089,0.000,2.472,0.226,9.920,0.650,0.000,24.912
14884,4.089,0.000,2.472,0.226,9.920,0.650,0.000,24.931
14902,4.089,0.000,2.472,0.226,9.920,0.650,0.000,24.930
14920,4.089,0.000,2.472,0.226,9.920,0.650,0.000,24.936
14938,4.089,0.000,2.472,0.226,9.920,0.650,0.000,24.912
14956,4.089,0.000,2.472,0.226,9.920,0.650,0.000,24.928
14974,4.089,0.000,2.472,0.226,9.920,0.650,0.000,24.904
14992,4.089,0.000,2.472,0.226,9.920,0.650,0.000,24.934
15010,4.089,0.000,2.472,0.226,9.920,0.650,0.000,24.934
15028,4.089,0.000,2.472,0.226,9.920,0.650,0.000,24.905
15046,4.089,0.000,2.472,0.226,9.920,0.650,0.000,24.911
15064,4.089,0.000,2.472,0.226,9.920,0.650,0.000,24.902
15082,4.089,0.000,2.472,0.226,9.920,0.650,0.000,24.890
15100,4.089,0.000,2.472,0.226,9.920,0.650,0.000,24.915
15118,4.089,0.000,2.472,0.226,9.920,0.650,0.000,24.962
15136,4.089,0.000,2.472,0.226,9.920,0.650,0.000,24.918
15154,4.089,0.000,2.472,0.226,9.920,0.650,0.000,24.904
15172,4.089,0.000,2.472,0.226,9.920,0.650,0.000,24.926
15190,4.089,0.000,2.472,0.226,9.920,0.650,0.000,24.894
15208,4.089,0.000,2.472,0.226,9.920,0.650,0.000,24.928
15226,4.089,0.000,2.472,0.226,9.920,0.650,0.000,24.895
15244,4.089,0.000,2.472,0.226,9.920,0.650,0.000,24.872
15262,4.089,0.000,2.472,0.226,9.920,0.650,0.000,24.884
15280,4.089,0.000,2.472,0.226,9.920,0.650,0.000,24.876
15298,4.089,0.000,2.472,0.226,9.920,0.650,0.000,24.873
15316,4.089,0.000,2.472,0.226,9.920,0.650,0.000,24.928
15334,4.089,0.000,2.472,0.226,9.920,0.650,0.000,24.884
15352,4.089,0.000,2.472,0.226,9.920,0.650,0.000,24.853
15370,4.089,0.000,2.472,0.226,9.920,0.650,0.000,24.879
15388,4.089,0.000,2.472,0.226,9.920,0.650,0.000,24.849
15406,4.089,0.000,2.472,0.226,9.920,0.650,0.000,24.904
15424,4.089,0.000,2.472,0.226,9.920,0.650,0.000,24.888
15442,4.089,0.000,2.472,0.226,9.920,0.650,0.000,24.891
15460,4.089,0.000,2.472,0.226,9.920,0.650,0.000,24.862
15478,4.089,0.000,2.472,0.226,9.920,0.650,0.000,24.872
15496,4.089,0.000,2.472,0.226,9.920,0.650,0.000,24.857
15514,4.089,0.000,2.472,0.226,9.920,0.650,0.000,24.888
15532,4.089,0.000,2.472,0.226,9.920,0.650,0.000,24.898
15550,4.089,0.000,2.472,0.226,9.920,0.650,0.000,24.841
15568,4.089,0.000,2.472,0.226,9.920,0.650,0.000,24.865
15586,4.089,0.000,2.472,0.226,9.920,0.650,0.000,24.865
15604,4.089,0.000,2.472,0.226,9.920,0.650,0.000,24.799
15622,4.089,0.000,2.472,0.226,9.920,0.650,0.000,24.853
15640,4.089,0.000,2.472,0.226,9.920,0.650,0.000,24.851
15658,4.089,0.000,2.472,0.226,9.920,0.650,0.000,24.867
15676,4.089,0.000,2.472,0.226,9.920,0.650,0.000,24.867
15694,4.089,0.000,2.472,0.226,9.920,0.650,0.000,24.880
15712,4.089,0.000,2.472,0.226,9.920,0.650,0.000,24.861
15730,4.089,0.000,2.472,0.226,9.920,0.650,0.000,24.888
15748,4.089,0.000,2.472,0.226,9.920,0.650,0.000,24.848
15766,4.089,0.000,2.472,0.226,9.920,0.650,0.000,24.843
15784,4.089,0.000,2.472,0.226,9.920,0.650,0.000,24.847
15802,4.089,0.000,2.472,0.226,9.920,0.650,0.000,24.848
15814,4.089,0.000,2.472,0.226,9.920,0.650,0.000,24.845