File: data/T25/5C/6.csv
time_s,voltage_v,current_a,chargecapacity_ah,dischargecapacity_ah,charge_energy_wh,discharge_energy_wh,voltagedot_v_per_s,temp_degc
1,4.074,0.000,0.000,0.000,0.000,0.000,0.000,23.699
12,4.074,0.000,0.000,0.000,0.000,0.000,0.000,23.743
23,4.074,0.000,0.000,0.000,0.000,0.000,0.000,23.718
34,4.074,0.000,0.000,0.000,0.000,0.000,0.000,23.777
45,4.074,0.000,0.000,0.000,0.000,0.000,0.000,23.777
56,4.074,0.000,0.000,0.000,0.000,0.000,0.000,23.773
66,4.177,1.625,0.003,0.000,0.011,0.002,0.001,23.852
77,4.186,1.625,0.008,0.000,0.032,0.002,0.001,23.890
88,4.191,1.625,0.013,0.000,0.053,0.002,0.001,23.954
99,4.195,1.625,0.018,0.000,0.074,0.002,0.000,24.027
110,4.199,1.625,0.023,0.000,0.095,0.002,0.000,24.074
120,4.200,1.597,0.027,0.000,0.114,0.002,0.000,24.126
131,4.200,1.553,0.032,0.000,0.134,0.002,0.000,24.216
142,4.200,1.516,0.037,0.000,0.154,0.002,0.000,24.284
153,4.200,1.484,0.041,0.000,0.173,0.002,0.000,24.340
164,4.200,1.454,0.046,0.000,0.192,0.002,0.000,24.360
175,4.200,1.428,0.050,0.000,0.210,0.002,0.000,24.421
186,4.200,1.402,0.054,0.000,0.228,0.002,0.000,24.460
197,4.200,1.378,0.059,0.000,0.246,0.002,0.000,24.485
208,4.200,1.356,0.063,0.000,0.264,0.002,0.000,24.542
219,4.200,1.334,0.067,0.000,0.281,0.002,0.000,24.591
230,4.200,1.314,0.071,0.000,0.298,0.002,0.000,24.643
241,4.200,1.292,0.075,0.000,0.315,0.002,0.000,24.670
252,4.200,1.273,0.079,0.000,0.331,0.002,0.000,24.658
263,4.200,1.252,0.083,0.000,0.347,0.002,0.000,24.713
274,4.200,1.233,0.087,0.000,0.363,0.002,0.000,24.767
285,4.200,1.214,0.090,0.000,0.379,0.002,0.000,24.766
296,4.200,1.195,0.094,0.000,0.394,0.002,0.000,24.803
307,4.200,1.178,0.098,0.000,0.410,0.002,0.000,24.794
318,4.200,1.159,0.101,0.000,0.425,0.002,0.000,24.853
329,4.200,1.141,0.105,0.000,0.439,0.002,0.000,24.885
340,4.200,1.123,0.108,0.000,0.454,0.002,0.000,24.951
351,4.200,1.106,0.112,0.000,0.468,0.002,0.000,24.873
362,4.200,1.088,0.115,0.000,0.482,0.002,0.000,24.870
373,4.200,1.071,0.118,0.000,0.496,0.002,0.000,24.874
384,4.200,1.054,0.121,0.000,0.510,0.002,0.000,24.909
395,4.200,1.036,0.125,0.000,0.523,0.002,0.000,24.954
406,4.200,1.020,0.128,0.000,0.536,0.002,0.000,24.987
417,4.200,1.003,0.131,0.000,0.549,0.002,0.000,24.991
428,4.200,0.986,0.134,0.000,0.562,0.002,0.000,24.944
439,4.200,0.971,0.137,0.000,0.575,0.002,0.000,24.971
450,4.200,0.954,0.140,0.000,0.587,0.002,0.000,24.985
461,4.200,0.938,0.143,0.000,0.599,0.002,0.000,24.990
472,4.200,0.922,0.146,0.000,0.611,0.002,0.000,25.012
483,4.200,0.906,0.148,0.000,0.623,0.002,0.000,25.033
494,4.200,0.890,0.151,0.000,0.634,0.002,0.000,25.017
505,4.200,0.875,0.154,0.000,0.646,0.002,0.000,24.988
516,4.200,0.859,0.156,0.000,0.657,0.002,0.000,25.075
527,4.200,0.844,0.159,0.000,0.668,0.002,0.000,25.022
538,4.200,0.829,0.162,0.000,0.678,0.002,0.000,25.017
549,4.200,0.814,0.164,0.000,0.689,0.002,0.000,24.999
560,4.200,0.800,0.167,0.000,0.699,0.002,0.000,25.037
571,4.200,0.785,0.169,0.000,0.709,0.002,0.000,25.039
582,4.200,0.772,0.171,0.000,0.719,0.002,0.000,25.068
593,4.200,0.757,0.174,0.000,0.729,0.002,0.000,25.044
604,4.200,0.743,0.176,0.000,0.739,0.002,0.000,25.014
615,4.200,0.729,0.178,0.000,0.748,0.002,0.000,25.004
626,4.200,0.715,0.180,0.000,0.758,0.002,0.000,24.980
637,4.200,0.702,0.183,0.000,0.767,0.002,0.000,25.008
648,4.200,0.689,0.185,0.000,0.776,0.002,0.000,25.026
659,4.200,0.675,0.187,0.000,0.784,0.002,0.000,25.020
670,4.200,0.662,0.189,0.000,0.793,0.002,0.000,25.011
681,4.200,0.650,0.191,0.000,0.801,0.002,0.000,25.006
692,4.200,0.637,0.193,0.000,0.809,0.002,0.000,25.015
703,4.200,0.625,0.195,0.000,0.818,0.002,0.000,24.963
714,4.200,0.612,0.197,0.000,0.826,0.002,0.000,25.032
725,4.200,0.600,0.198,0.000,0.833,0.002,0.000,25.020
736,4.200,0.589,0.200,0.000,0.841,0.002,0.000,25.002
747,4.200,0.576,0.202,0.000,0.848,0.002,0.000,24.989
758,4.200,0.565,0.204,0.000,0.856,0.002,0.000,25.016
769,4.200,0.555,0.206,0.000,0.863,0.002,0.000,24.973
780,4.200,0.543,0.207,0.000,0.870,0.002,0.000,24.982
791,4.200,0.532,0.209,0.000,0.877,0.002,0.000,25.054
802,4.200,0.521,0.210,0.000,0.884,0.002,0.000,25.027
813,4.200,0.510,0.212,0.000,0.890,0.002,0.000,24.994
824,4.200,0.501,0.214,0.000,0.897,0.002,0.000,24.958
835,4.200,0.490,0.215,0.000,0.903,0.002,0.000,25.016
846,4.200,0.480,0.217,0.000,0.909,0.002,0.000,24.938
857,4.200,0.471,0.218,0.000,0.915,0.002,0.000,24.961
868,4.200,0.462,0.219,0.000,0.921,0.002,0.000,24.920
879,4.200,0.452,0.221,0.000,0.927,0.002,0.000,24.983
890,4.200,0.442,0.222,0.000,0.933,0.002,0.000,24.909
901,4.200,0.434,0.224,0.000,0.939,0.002,0.000,24.920
912,4.200,0.425,0.225,0.000,0.944,0.002,0.000,24.927
923,4.200,0.416,0.226,0.000,0.949,0.002,0.000,24.965
934,4.200,0.408,0.227,0.000,0.955,0.002,0.000,24.897
945,4.200,0.400,0.229,0.000,0.960,0.002,0.000,24.913
956,4.200,0.391,0.230,0.000,0.965,0.002,0.000,24.912
967,4.200,0.383,0.231,0.000,0.970,0.002,0.000,24.884
978,4.200,0.376,0.232,0.000,0.975,0.002,0.000,24.877
989,4.200,0.368,0.233,0.000,0.980,0.002,0.000,24.894
1000,4.200,0.361,0.234,0.000,0.984,0.002,0.000,24.871
1011,4.200,0.353,0.235,0.000,0.989,0.002,0.000,24.881
1022,4.200,0.346,0.237,0.000,0.993,0.002,0.000,24.883
1033,4.200,0.339,0.238,0.000,0.998,0.002,0.000,24.899
1044,4.200,0.333,0.239,0.000,1.002,0.002,0.000,24.890
1055,4.200,0.326,0.240,0.000,1.006,0.002,0.000,24.892
1066,4.200,0.320,0.241,0.000,1.010,0.002,0.000,24.868
1077,4.200,0.314,0.242,0.000,1.014,0.002,0.000,24.850
1088,4.200,0.307,0.243,0.000,1.018,0.002,0.000,24.873
1099,4.200,0.301,0.243,0.000,1.022,0.002,0.000,24.854
1110,4.200,0.295,0.244,0.000,1.026,0.002,0.000,24.847
1121,4.200,0.289,0.245,0.000,1.030,0.002,0.000,24.864
1132,4.200,0.284,0.246,0.000,1.034,0.002,0.000,24.841
1143,4.200,0.278,0.247,0.000,1.037,0.002,0.000,24.854
1154,4.200,0.273,0.248,0.000,1.041,0.002,0.000,24.824
1165,4.200,0.268,0.249,0.000,1.044,0.002,0.000,24.851
1176,4.200,0.263,0.249,0.000,1.048,0.002,0.000,24.833
1187,4.200,0.258,0.250,0.000,1.051,0.002,0.000,24.876
1198,4.200,0.253,0.251,0.000,1.054,0.002,0.000,24.849
1209,4.200,0.249,0.252,0.000,1.057,0.002,0.000,24.844
1220,4.200,0.245,0.253,0.000,1.061,0.002,0.000,24.813
1231,4.200,0.239,0.253,0.000,1.064,0.002,0.000,24.835
1242,4.200,0.235,0.254,0.000,1.067,0.002,0.000,24.817
1253,4.200,0.231,0.255,0.000,1.070,0.002,0.000,24.796
1264,4.200,0.227,0.255,0.000,1.073,0.002,0.000,24.828
1275,4.200,0.223,0.256,0.000,1.076,0.002,0.000,24.793
1286,4.200,0.219,0.257,0.000,1.078,0.002,0.000,24.822
1297,4.200,0.216,0.257,0.000,1.081,0.002,0.000,24.783
1308,4.200,0.211,0.258,0.000,1.084,0.002,0.000,24.804
1319,4.200,0.209,0.259,0.000,1.087,0.002,0.000,24.789
1330,4.200,0.204,0.259,0.000,1.089,0.002,0.000,24.783
1341,4.200,0.200,0.260,0.000,1.092,0.002,0.000,24.762
1352,4.200,0.197,0.261,0.000,1.094,0.002,0.000,24.745
1363,4.200,0.194,0.261,0.000,1.097,0.002,0.000,24.770
1374,4.200,0.191,0.262,0.000,1.099,0.002,0.000,24.759
1385,4.200,0.187,0.262,0.000,1.102,0.002,0.000,24.760
1396,4.200,0.184,0.263,0.000,1.104,0.002,0.000,24.748
1407,4.200,0.181,0.264,0.000,1.107,0.002,0.000,24.793
1418,4.200,0.178,0.264,0.000,1.109,0.002,0.000,24.759
1429,4.200,0.174,0.265,0.000,1.111,0.002,0.000,24.781
1440,4.200,0.172,0.265,0.000,1.113,0.002,0.000,24.757
1451,4.200,0.168,0.266,0.000,1.115,0.002,0.000,24.749
1462,4.200,0.166,0.266,0.000,1.118,0.002,0.000,24.715
1473,4.200,0.164,0.267,0.000,1.120,0.002,0.000,24.730
1484,4.200,0.161,0.267,0.000,1.122,0.002,0.000,24.719
1495,4.200,0.159,0.268,0.000,1.124,0.002,0.000,24.769
1506,4.200,0.156,0.268,0.000,1.126,0.002,0.000,24.747
1517,4.200,0.155,0.269,0.000,1.128,0.002,0.000,24.703
1528,4.200,0.151,0.269,0.000,1.130,0.002,0.000,24.725
1539,4.200,0.150,0.270,0.000,1.132,0.002,0.000,24.751
1550,4.200,0.147,0.270,0.000,1.134,0.002,0.000,24.703
1561,4.200,0.145,0.270,0.000,1.136,0.002,0.000,24.718
1572,4.200,0.143,0.271,0.000,1.137,0.002,0.000,24.703
1583,4.200,0.141,0.271,0.000,1.139,0.002,0.000,24.724
1594,4.200,0.138,0.272,0.000,1.141,0.002,0.000,24.718
1605,4.200,0.136,0.272,0.000,1.143,0.002,0.000,24.726
1616,4.200,0.134,0.273,0.000,1.145,0.002,0.000,24.696
1627,4.200,0.132,0.273,0.000,1.146,0.002,0.000,24.688
1638,4.200,0.130,0.273,0.000,1.148,0.002,0.000,24.695
1649,4.200,0.129,0.274,0.000,1.150,0.002,0.000,24.698
1660,4.200,0.126,0.274,0.000,1.151,0.002,0.000,24.684
1671,4.200,0.126,0.275,0.000,1.153,0.002,0.000,24.754
1682,4.200,0.122,0.275,0.000,1.154,0.002,0.000,24.694
1693,4.200,0.122,0.275,0.000,1.156,0.002,0.000,24.714
1704,4.200,0.119,0.276,0.000,1.158,0.002,0.000,24.676
1715,4.200,0.118,0.276,0.000,1.159,0.002,0.000,24.664
1726,4.200,0.116,0.276,0.000,1.161,0.002,0.000,24.720
1737,4.200,0.115,0.277,0.000,1.162,0.002,0.000,24.711
1748,4.200,0.113,0.277,0.000,1.164,0.002,0.000,24.661
1759,4.200,0.111,0.277,0.000,1.165,0.002,0.000,24.646
1770,4.200,0.110,0.278,0.000,1.166,0.002,0.000,24.739
1781,4.200,0.109,0.278,0.000,1.168,0.002,0.000,24.705
1792,4.200,0.107,0.278,0.000,1.169,0.002,0.000,24.696
1803,4.200,0.105,0.279,0.000,1.171,0.002,0.000,24.652
1814,4.200,0.104,0.279,0.000,1.172,0.002,0.000,24.643
1825,4.200,0.103,0.279,0.000,1.173,0.002,0.000,24.666
1836,4.200,0.101,0.280,0.000,1.174,0.002,0.000,24.670
1847,4.200,0.100,0.280,0.000,1.176,0.002,0.000,24.699
1858,4.200,0.098,0.280,0.000,1.177,0.002,0.000,24.680
1869,4.200,0.098,0.281,0.000,1.178,0.002,0.000,24.686
1880,4.200,0.097,0.281,0.000,1.180,0.002,0.000,24.659
1891,4.200,0.095,0.281,0.000,1.181,0.002,0.000,24.643
1902,4.200,0.094,0.281,0.000,1.182,0.002,0.000,24.707
1913,4.200,0.092,0.282,0.000,1.183,0.002,0.000,24.669
1924,4.200,0.091,0.282,0.000,1.184,0.002,0.000,24.670
1935,4.200,0.090,0.282,0.000,1.186,0.002,0.000,24.664
1946,4.200,0.089,0.283,0.000,1.187,0.002,0.000,24.673
1957,4.200,0.088,0.283,0.000,1.188,0.002,0.000,24.602
1968,4.200,0.087,0.283,0.000,1.189,0.002,0.000,24.666
1979,4.200,0.086,0.283,0.000,1.190,0.002,0.000,24.659
1990,4.200,0.085,0.284,0.000,1.191,0.002,0.000,24.647
2001,4.200,0.083,0.284,0.000,1.192,0.002,0.000,24.639
2012,4.200,0.082,0.284,0.000,1.193,0.002,0.000,24.655
2023,4.200,0.082,0.284,0.000,1.194,0.002,0.000,24.633
2034,4.200,0.081,0.285,0.000,1.195,0.002,0.000,24.694
2045,4.200,0.080,0.285,0.000,1.196,0.002,0.000,24.656
2056,4.200,0.078,0.285,0.000,1.197,0.002,0.000,24.698
2067,4.200,0.077,0.285,0.000,1.198,0.002,0.000,24.637
2078,4.200,0.077,0.286,0.000,1.199,0.002,0.000,24.633
2089,4.200,0.075,0.286,0.000,1.200,0.002,0.000,24.698
2100,4.200,0.075,0.286,0.000,1.201,0.002,0.000,24.661
2111,4.200,0.074,0.286,0.000,1.202,0.002,0.000,24.655
2122,4.200,0.074,0.287,0.000,1.203,0.002,0.000,24.632
2133,4.200,0.073,0.287,0.000,1.204,0.002,0.000,24.673
2144,4.200,0.072,0.287,0.000,1.205,0.002,0.000,24.655
2155,4.200,0.070,0.287,0.000,1.206,0.002,0.000,24.628
2166,4.200,0.070,0.287,0.000,1.207,0.002,0.000,24.625
2177,4.200,0.069,0.288,0.000,1.208,0.002,0.000,24.656
2188,4.200,0.068,0.288,0.000,1.209,0.002,0.000,24.687
2199,4.200,0.067,0.288,0.000,1.210,0.002,0.000,24.704
2210,4.200,0.067,0.288,0.000,1.210,0.002,0.000,24.646
2221,4.200,0.066,0.288,0.000,1.211,0.002,0.000,24.689
2232,4.195,0.000,0.289,0.000,1.212,0.002,0.000,24.671
2243,4.195,0.000,0.289,0.000,1.212,0.002,0.000,24.611
2254,4.194,0.000,0.289,0.000,1.212,0.002,0.000,24.644
2265,4.194,0.000,0.289,0.000,1.212,0.002,0.000,24.664
2276,4.194,0.000,0.289,0.000,1.212,0.002,0.000,24.651
2287,4.194,0.000,0.289,0.000,1.212,0.002,0.000,24.655
2298,4.193,0.000,0.289,0.000,1.212,0.002,0.000,24.635
2309,4.193,0.000,0.289,0.000,1.212,0.002,0.000,24.625
2320,4.193,0.000,0.289,0.000,1.212,0.002,0.000,24.633
2331,4.193,0.000,0.289,0.000,1.212,0.002,0.000,24.650
2342,4.193,0.000,0.289,0.000,1.212,0.002,0.000,24.652
2353,4.192,0.000,0.289,0.000,1.212,0.002,0.000,24.636
2364,4.192,0.000,0.289,0.000,1.212,0.002,0.000,24.627
2375,4.192,0.000,0.289,0.000,1.212,0.002,0.000,24.632
2386,4.192,0.000,0.289,0.000,1.212,0.002,0.000,24.618
2397,4.192,0.000,0.289,0.000,1.212,0.002,0.000,24.651
2408,4.192,0.000,0.289,0.000,1.212,0.002,0.000,24.629
2419,4.191,0.000,0.289,0.000,1.212,0.002,0.000,24.614
2430,4.191,0.000,0.289,0.000,1.212,0.002,0.000,24.627
2441,4.191,0.000,0.289,0.000,1.212,0.002,0.000,24.647
2452,4.191,0.000,0.289,0.000,1.212,0.002,0.000,24.622
2463,4.191,0.000,0.289,0.000,1.212,0.002,0.000,24.625
2474,4.191,0.000,0.289,0.000,1.212,0.002,0.000,24.608
2485,4.191,0.000,0.289,0.000,1.212,0.002,0.000,24.630
2496,4.191,0.000,0.289,0.000,1.212,0.002,0.000,24.609
2507,4.191,0.000,0.289,0.000,1.212,0.002,0.000,24.630
2518,4.190,0.000,0.289,0.000,1.212,0.002,0.000,24.629
2529,4.190,0.000,0.289,0.000,1.212,0.002,0.000,24.617
2540,4.190,0.000,0.289,0.000,1.212,0.002,0.000,24.656
2551,4.190,0.000,0.289,0.000,1.212,0.002,0.000,24.571
2562,4.190,0.000,0.289,0.000,1.212,0.002,0.000,24.623
2573,4.190,0.000,0.289,0.000,1.212,0.002,0.000,24.571
2584,4.190,0.000,0.289,0.000,1.212,0.002,0.000,24.641
2595,4.190,0.000,0.289,0.000,1.212,0.002,0.000,24.668
2606,4.190,0.000,0.289,0.000,1.212,0.002,0.000,24.636
2617,4.190,0.000,0.289,0.000,1.212,0.002,0.000,24.627
2628,4.190,0.000,0.289,0.000,1.212,0.002,0.000,24.664
2639,4.190,0.000,0.289,0.000,1.212,0.002,0.000,24.598
2650,4.190,0.000,0.289,0.000,1.212,0.002,0.000,24.639
2661,4.190,0.000,0.289,0.000,1.212,0.002,0.000,24.648
2672,4.189,0.000,0.289,0.000,1.212,0.002,0.000,24.600
2683,4.189,0.000,0.289,0.000,1.212,0.002,0.000,24.630
2694,4.189,0.000,0.289,0.000,1.212,0.002,0.000,24.615
2705,4.189,0.000,0.289,0.000,1.212,0.002,0.000,24.627
2716,4.189,0.000,0.289,0.000,1.212,0.002,0.000,24.621
2727,4.189,0.000,0.289,0.000,1.212,0.002,0.000,24.630
2738,4.189,0.000,0.289,0.000,1.212,0.002,0.000,24.602
2749,4.189,0.000,0.289,0.000,1.212,0.002,0.000,24.594
2760,4.189,0.000,0.289,0.000,1.212,0.002,0.000,24.602
2771,4.189,0.000,0.289,0.000,1.212,0.002,0.000,24.620
2782,4.189,0.000,0.289,0.000,1.212,0.002,0.000,24.653
2793,4.189,0.000,0.289,0.000,1.212,0.002,0.000,24.627
2804,4.189,0.000,0.289,0.000,1.212,0.002,0.000,24.661
2815,4.189,0.000,0.289,0.000,1.212,0.002,0.000,24.640
2826,4.189,0.000,0.289,0.000,1.212,0.002,0.000,24.644
2837,4.189,0.000,0.289,0.000,1.212,0.002,0.000,24.625
2848,4.188,0.000,0.289,0.000,1.212,0.002,0.000,24.650
2859,4.188,0.000,0.289,0.000,1.212,0.002,0.000,24.619
2870,4.188,0.000,0.289,0.000,1.212,0.002,0.000,24.621
2881,4.188,0.000,0.289,0.000,1.212,0.002,0.000,24.637
2892,4.188,0.000,0.289,0.000,1.212,0.002,0.000,24.647
2903,4.188,0.000,0.289,0.000,1.212,0.002,0.000,24.639
2914,4.188,0.000,0.289,0.000,1.212,0.002,0.000,24.617
2925,4.188,0.000,0.289,0.000,1.212,0.002,0.000,24.635
2936,4.188,0.000,0.289,0.000,1.212,0.002,0.000,24.646
2947,4.188,0.000,0.289,0.000,1.212,0.002,0.000,24.647
2958,4.188,0.000,0.289,0.000,1.212,0.002,0.000,24.614
2969,4.188,0.000,0.289,0.000,1.212,0.002,0.000,24.651
2980,4.188,0.000,0.289,0.000,1.212,0.002,0.000,24.621
2991,4.188,0.000,0.289,0.000,1.212,0.002,0.000,24.636
3002,4.188,0.000,0.289,0.000,1.212,0.002,0.000,24.639
3013,4.188,0.000,0.289,0.000,1.212,0.002,0.000,24.642
3024,4.188,0.000,0.289,0.000,1.212,0.002,0.000,24.648
3035,4.188,0.000,0.289,0.000,1.212,0.002,0.000,24.622
3046,4.188,0.000,0.289,0.000,1.212,0.002,0.000,24.637
3057,4.188,0.000,0.289,0.000,1.212,0.002,0.000,24.594
3068,4.188,0.000,0.289,0.000,1.212,0.002,0.000,24.621
3079,4.188,0.000,0.289,0.000,1.212,0.002,0.000,24.663
3090,4.187,0.000,0.289,0.000,1.212,0.002,0.000,24.631
3101,4.187,0.000,0.289,0.000,1.212,0.002,0.000,24.621
3112,4.187,0.000,0.289,0.000,1.212,0.002,0.000,24.572
3123,4.187,0.000,0.289,0.000,1.212,0.002,0.000,24.639
3134,4.187,0.000,0.289,0.000,1.212,0.002,0.000,24.682
3145,4.187,0.000,0.289,0.000,1.212,0.002,0.000,24.636
3156,4.187,0.000,0.289,0.000,1.212,0.002,0.000,24.634
3167,4.187,0.000,0.289,0.000,1.212,0.002,0.000,24.618
3178,4.187,0.000,0.289,0.000,1.212,0.002,0.000,24.611
3189,4.187,0.000,0.289,0.000,1.212,0.002,0.000,24.656
3200,4.187,0.000,0.289,0.000,1.212,0.002,0.000,24.645
3211,4.187,0.000,0.289,0.000,1.212,0.002,0.000,24.684
3222,4.187,0.000,0.289,0.000,1.212,0.002,0.000,24.593
3233,4.187,0.000,0.289,0.000,1.212,0.002,0.000,24.588
3244,4.187,0.000,0.289,0.000,1.212,0.002,0.000,24.608
3255,4.187,0.000,0.289,0.000,1.212,0.002,0.000,24.643
3266,4.187,0.000,0.289,0.000,1.212,0.002,0.000,24.613
3277,4.187,0.000,0.289,0.000,1.212,0.002,0.000,24.645
3288,4.187,0.000,0.289,0.000,1.212,0.002,0.000,24.615
3299,4.187,0.000,0.289,0.000,1.212,0.002,0.000,24.597
3310,4.187,0.000,0.289,0.000,1.212,0.002,0.000,24.640
3321,4.187,0.000,0.289,0.000,1.212,0.002,0.000,24.602
3332,4.187,0.000,0.289,0.000,1.212,0.002,0.000,24.653
3343,4.187,0.000,0.289,0.000,1.212,0.002,0.000,24.637
3354,4.187,0.000,0.289,0.000,1.212,0.002,0.000,24.598
3365,4.187,0.000,0.289,0.000,1.212,0.002,0.000,24.633
3376,4.186,0.000,0.289,0.000,1.212,0.002,0.000,24.620
3387,4.186,0.000,0.289,0.000,1.212,0.002,0.000,24.628
3398,4.186,0.000,0.289,0.000,1.212,0.002,0.000,24.601
3409,4.186,0.000,0.289,0.000,1.212,0.002,0.000,24.592
3420,4.186,0.000,0.289,0.000,1.212,0.002,0.000,24.617
3431,4.186,0.000,0.289,0.000,1.212,0.002,0.000,24.665
3442,4.186,0.000,0.289,0.000,1.212,0.002,0.000,24.601
3453,4.186,0.000,0.289,0.000,1.212,0.002,0.000,24.636
3464,4.186,0.000,0.289,0.000,1.212,0.002,0.000,24.603
3475,4.186,0.000,0.289,0.000,1.212,0.002,0.000,24.635
3486,4.186,0.000,0.289,0.000,1.212,0.002,0.000,24.662
3497,4.186,0.000,0.289,0.000,1.212,0.002,0.000,24.665
3508,4.186,0.000,0.289,0.000,1.212,0.002,0.000,24.627
3519,4.186,0.000,0.289,0.000,1.212,0.002,0.000,24.616
3530,4.186,0.000,0.289,0.000,1.212,0.002,0.000,24.627
3541,4.186,0.000,0.289,0.000,1.212,0.002,0.000,24.650
3552,4.186,0.000,0.289,0.000,1.212,0.002,0.000,24.585
3563,4.186,0.000,0.289,0.000,1.212,0.002,0.000,24.613
3574,4.186,0.000,0.289,0.000,1.212,0.002,0.000,24.655
3585,4.186,0.000,0.289,0.000,1.212,0.002,0.000,24.661
3596,4.186,0.000,0.289,0.000,1.212,0.002,0.000,24.618
3607,4.186,0.000,0.289,0.000,1.212,0.002,0.000,24.609
3618,4.186,0.000,0.289,0.000,1.212,0.002,0.000,24.656
3629,4.186,0.000,0.289,0.000,1.212,0.002,0.000,24.632
3640,4.186,0.000,0.289,0.000,1.212,0.002,0.000,24.654
3651,4.186,0.000,0.289,0.000,1.212,0.002,0.000,24.646
3662,4.186,0.000,0.289,0.000,1.212,0.002,0.000,24.638
3673,4.186,0.000,0.289,0.000,1.212,0.002,0.000,24.653
3684,4.186,0.000,0.289,0.000,1.212,0.002,0.000,24.634
3695,4.186,0.000,0.289,0.000,1.212,0.002,0.000,24.674
3706,4.186,0.000,0.289,0.000,1.212,0.002,0.000,24.615
3717,4.186,0.000,0.289,0.000,1.212,0.002,0.000,24.652
3728,4.186,0.000,0.289,0.000,1.212,0.002,0.000,24.659
3739,4.186,0.000,0.289,0.000,1.212,0.002,0.000,24.637
3750,4.186,0.000,0.289,0.000,1.212,0.002,0.000,24.644
3761,4.185,0.000,0.289,0.000,1.212,0.002,0.000,24.667
3772,4.186,0.000,0.289,0.000,1.212,0.002,0.000,24.656
3783,4.185,0.000,0.289,0.000,1.212,0.002,0.000,24.653
3794,4.185,0.000,0.289,0.000,1.212,0.002,0.000,24.610
3805,4.185,0.000,0.289,0.000,1.212,0.002,0.000,24.677
3816,4.185,0.000,0.289,0.000,1.212,0.002,0.000,24.597
3827,4.185,0.000,0.289,0.000,1.212,0.002,0.000,24.663
3838,4.185,0.000,0.289,0.000,1.212,0.002,0.000,24.634
3849,4.185,0.000,0.289,0.000,1.212,0.002,0.000,24.597
3860,4.185,0.000,0.289,0.000,1.212,0.002,0.000,24.620
3871,4.185,0.000,0.289,0.000,1.212,0.002,0.000,24.608
3882,4.185,0.000,0.289,0.000,1.212,0.002,0.000,24.616
3893,4.185,0.000,0.289,0.000,1.212,0.002,0.000,24.642
3904,4.185,0.000,0.289,0.000,1.212,0.002,0.000,24.685
3915,4.185,0.000,0.289,0.000,1.212,0.002,0.000,24.642
3926,4.185,0.000,0.289,0.000,1.212,0.002,0.000,24.674
3937,4.185,0.000,0.289,0.000,1.212,0.002,0.000,24.692
3948,4.185,0.000,0.289,0.000,1.212,0.002,0.000,24.650
3959,4.185,0.000,0.289,0.000,1.212,0.002,0.000,24.637
3970,4.185,0.000,0.289,0.000,1.212,0.002,0.000,24.647
3981,4.185,0.000,0.289,0.000,1.212,0.002,0.000,24.606
3992,4.185,0.000,0.289,0.000,1.212,0.002,0.000,24.632
4003,4.185,0.000,0.289,0.000,1.212,0.002,0.000,24.668
4014,4.185,0.000,0.289,0.000,1.212,0.002,0.000,24.651
4025,4.185,0.000,0.289,0.000,1.212,0.002,0.000,24.632
4036,4.185,0.000,0.289,0.000,1.212,0.002,0.000,24.688
4047,4.185,0.000,0.289,0.000,1.212,0.002,0.000,24.661
4058,4.185,0.000,0.289,0.000,1.212,0.002,0.000,24.679
4069,4.185,0.000,0.289,0.000,1.212,0.002,0.000,24.651
4080,4.185,0.000,0.289,0.000,1.212,0.002,0.000,24.677
4091,4.185,0.000,0.289,0.000,1.212,0.002,0.000,24.649
4102,4.185,0.000,0.289,0.000,1.212,0.002,0.000,24.648
4113,4.185,0.000,0.289,0.000,1.212,0.002,0.000,24.646
4124,4.185,0.000,0.289,0.000,1.212,0.002,0.000,24.640
4135,4.185,0.000,0.289,0.000,1.212,0.002,0.000,24.647
4146,4.185,0.000,0.289,0.000,1.212,0.002,0.000,24.646
4157,4.185,0.000,0.289,0.000,1.212,0.002,0.000,24.653
4168,4.185,0.000,0.289,0.000,1.212,0.002,0.000,24.674
4179,4.185,0.000,0.289,0.000,1.212,0.002,0.000,24.720
4190,4.185,0.000,0.289,0.000,1.212,0.002,0.000,24.617
4201,4.185,0.000,0.289,0.000,1.212,0.002,0.000,24.657
4212,4.185,0.000,0.289,0.000,1.212,0.002,0.000,24.657
4223,4.185,0.000,0.289,0.000,1.212,0.002,0.000,24.708
4234,4.185,0.000,0.289,0.000,1.212,0.002,0.000,24.647
4245,4.185,0.000,0.289,0.000,1.212,0.002,0.000,24.674
4256,4.185,0.000,0.289,0.000,1.212,0.002,0.000,24.646
4267,4.185,0.000,0.289,0.000,1.212,0.002,0.000,24.631
4278,4.185,0.000,0.289,0.000,1.212,0.002,0.000,24.613
4289,4.185,0.000,0.289,0.000,1.212,0.002,0.000,24.709
4300,4.185,0.000,0.289,0.000,1.212,0.002,0.000,24.654
4311,4.185,0.000,0.289,0.000,1.212,0.002,0.000,24.652
4322,4.184,0.000,0.289,0.000,1.212,0.002,0.000,24.649
4333,4.184,0.000,0.289,0.000,1.212,0.002,0.000,24.688
4344,4.184,0.000,0.289,0.000,1.212,0.002,0.000,24.661
4355,4.185,0.000,0.289,0.000,1.212,0.002,0.000,24.646
4366,4.184,0.000,0.289,0.000,1.212,0.002,0.000,24.640
4377,4.184,0.000,0.289,0.000,1.212,0.002,0.000,24.669
4388,4.184,0.000,0.289,0.000,1.212,0.002,0.000,24.675
4399,4.184,0.000,0.289,0.000,1.212,0.002,0.000,24.650
4410,4.184,0.000,0.289,0.000,1.212,0.002,0.000,24.707
4421,4.184,0.000,0.289,0.000,1.212,0.002,0.000,24.667
4432,4.184,0.000,0.289,0.000,1.212,0.002,0.000,24.601
4443,4.184,0.000,0.289,0.000,1.212,0.002,0.000,24.666
4454,4.184,0.000,0.289,0.000,1.212,0.002,0.000,24.634
4465,4.184,0.000,0.289,0.000,1.212,0.002,0.000,24.627
4476,4.184,0.000,0.289,0.000,1.212,0.002,0.000,24.622
4487,4.184,0.000,0.289,0.000,1.212,0.002,0.000,24.651
4498,4.184,0.000,0.289,0.000,1.212,0.002,0.000,24.621
4509,4.184,0.000,0.289,0.000,1.212,0.002,0.000,24.636
4520,4.184,0.000,0.289,0.000,1.212,0.002,0.000,24.643
4531,4.184,0.000,0.289,0.000,1.212,0.002,0.000,24.641
4542,4.184,0.000,0.289,0.000,1.212,0.002,0.000,24.684
4553,4.184,0.000,0.289,0.000,1.212,0.002,0.000,24.630
4564,4.184,0.000,0.289,0.000,1.212,0.002,0.000,24.638
4575,4.184,0.000,0.289,0.000,1.212,0.002,0.000,24.622
4586,4.184,0.000,0.289,0.000,1.212,0.002,0.000,24.631
4597,4.184,0.000,0.289,0.000,1.212,0.002,0.000,24.659
4608,4.184,0.000,0.289,0.000,1.212,0.002,0.000,24.650
4619,4.184,0.000,0.289,0.000,1.212,0.002,0.000,24.630
4630,4.184,0.000,0.289,0.000,1.212,0.002,0.000,24.666
4641,4.184,0.000,0.289,0.000,1.212,0.002,0.000,24.619
4652,4.184,0.000,0.289,0.000,1.212,0.002,0.000,24.640
4663,4.184,0.000,0.289,0.000,1.212,0.002,0.000,24.667
4674,4.184,0.000,0.289,0.000,1.212,0.002,0.000,24.613
4685,4.184,0.000,0.289,0.000,1.212,0.002,0.000,24.640
4696,4.184,0.000,0.289,0.000,1.212,0.002,0.000,24.612
4707,4.184,0.000,0.289,0.000,1.212,0.002,0.000,24.627
4718,4.184,0.000,0.289,0.000,1.212,0.002,0.000,24.630
4729,4.184,0.000,0.289,0.000,1.212,0.002,0.000,24.606
4740,4.184,0.000,0.289,0.000,1.212,0.002,0.000,24.675
4751,4.184,0.000,0.289,0.000,1.212,0.002,0.000,24.599
4762,4.184,0.000,0.289,0.000,1.212,0.002,0.000,24.639
4773,4.184,0.000,0.289,0.000,1.212,0.002,0.000,24.620
4784,4.184,0.000,0.289,0.000,1.212,0.002,0.000,24.654
4795,4.184,0.000,0.289,0.000,1.212,0.002,0.000,24.642
4806,4.184,0.000,0.289,0.000,1.212,0.002,0.000,24.611
4817,4.184,0.000,0.289,0.000,1.212,0.002,0.000,24.628
4828,4.184,0.000,0.289,0.000,1.212,0.002,0.000,24.601
4839,4.184,0.000,0.289,0.000,1.212,0.002,0.000,24.664
4850,4.184,0.000,0.289,0.000,1.212,0.002,0.000,24.625
4861,4.184,0.000,0.289,0.000,1.212,0.002,0.000,24.625
4872,4.184,0.000,0.289,0.000,1.212,0.002,0.000,24.629
4883,4.184,0.000,0.289,0.000,1.212,0.002,0.000,24.674
4894,4.184,0.000,0.289,0.000,1.212,0.002,0.000,24.615
4905,4.184,0.000,0.289,0.000,1.212,0.002,0.000,24.645
4916,4.184,0.000,0.289,0.000,1.212,0.002,0.000,24.637
4927,4.184,0.000,0.289,0.000,1.212,0.002,0.000,24.645
4938,4.184,0.000,0.289,0.000,1.212,0.002,0.000,24.616
4949,4.184,0.000,0.289,0.000,1.212,0.002,0.000,24.600
4960,4.184,0.000,0.289,0.000,1.212,0.002,0.000,24.655
4971,4.184,0.000,0.289,0.000,1.212,0.002,0.000,24.648
4982,4.183,0.000,0.289,0.000,1.212,0.002,0.000,24.624
4993,4.184,0.000,0.289,0.000,1.212,0.002,0.000,24.610
5004,4.183,0.000,0.289,0.000,1.212,0.002,0.000,24.639
5015,4.183,0.000,0.289,0.000,1.212,0.002,0.000,24.671
5026,4.183,0.000,0.289,0.000,1.212,0.002,0.000,24.636
5037,4.184,0.000,0.289,0.000,1.212,0.002,0.000,24.615
5048,4.183,0.000,0.289,0.000,1.212,0.002,0.000,24.620
5059,4.183,0.000,0.289,0.000,1.212,0.002,0.000,24.658
5070,4.183,0.000,0.289,0.000,1.212,0.002,0.000,24.626
5081,4.183,0.000,0.289,0.000,1.212,0.002,0.000,24.638
5092,4.183,0.000,0.289,0.000,1.212,0.002,0.000,24.610
5103,4.183,0.000,0.289,0.000,1.212,0.002,0.000,24.602
5114,4.183,0.000,0.289,0.000,1.212,0.002,0.000,24.608
5125,4.183,0.000,0.289,0.000,1.212,0.002,0.000,24.628
5136,4.183,0.000,0.289,0.000,1.212,0.002,0.000,24.636
5147,4.183,0.000,0.289,0.000,1.212,0.002,0.000,24.625
5158,4.183,0.000,0.289,0.000,1.212,0.002,0.000,24.614
5169,4.183,0.000,0.289,0.000,1.212,0.002,0.000,24.664
5180,4.183,0.000,0.289,0.000,1.212,0.002,0.000,24.644
5191,4.183,0.000,0.289,0.000,1.212,0.002,0.000,24.670
5202,4.183,0.000,0.289,0.000,1.212,0.002,0.000,24.596
5213,4.183,0.000,0.289,0.000,1.212,0.002,0.000,24.643
5224,4.183,0.000,0.289,0.000,1.212,0.002,0.000,24.602
5235,4.183,0.000,0.289,0.000,1.212,0.002,0.000,24.638
5246,4.183,0.000,0.289,0.000,1.212,0.002,0.000,24.606
5257,4.183,0.000,0.289,0.000,1.212,0.002,0.000,24.631
5268,4.183,0.000,0.289,0.000,1.212,0.002,0.000,24.612
5279,4.183,0.000,0.289,0.000,1.212,0.002,0.000,24.600
5290,4.183,0.000,0.289,0.000,1.212,0.002,0.000,24.612
5301,4.183,0.000,0.289,0.000,1.212,0.002,0.000,24.629
5312,4.183,0.000,0.289,0.000,1.212,0.002,0.000,24.617
5323,4.183,0.000,0.289,0.000,1.212,0.002,0.000,24.639
5334,4.183,0.000,0.289,0.000,1.212,0.002,0.000,24.651
5345,4.183,0.000,0.289,0.000,1.212,0.002,0.000,24.682
5356,4.183,0.000,0.289,0.000,1.212,0.002,0.000,24.653
5367,4.183,0.000,0.289,0.000,1.212,0.002,0.000,24.639
5378,4.183,0.000,0.289,0.000,1.212,0.002,0.000,24.656
5389,4.183,0.000,0.289,0.000,1.212,0.002,0.000,24.618
5400,4.183,0.000,0.289,0.000,1.212,0.002,0.000,24.695
5411,4.183,0.000,0.289,0.000,1.212,0.002,0.000,24.652
5422,4.183,0.000,0.289,0.000,1.212,0.002,0.000,24.644
5433,4.183,0.000,0.289,0.000,1.212,0.002,0.000,24.673
5444,4.183,0.000,0.289,0.000,1.212,0.002,0.000,24.650
5455,4.183,0.000,0.289,0.000,1.212,0.002,0.000,24.664
5466,4.183,0.000,0.289,0.000,1.212,0.002,0.000,24.653
5477,4.183,0.000,0.289,0.000,1.212,0.002,0.000,24.606
5488,4.183,0.000,0.289,0.000,1.212,0.002,0.000,24.655
5499,4.183,0.000,0.289,0.000,1.212,0.002,0.000,24.618
5510,4.183,0.000,0.289,0.000,1.212,0.002,0.000,24.645
5521,4.183,0.000,0.289,0.000,1.212,0.002,0.000,24.683
5532,4.183,0.000,0.289,0.000,1.212,0.002,0.000,24.605
5543,4.183,0.000,0.289,0.000,1.212,0.002,0.000,24.660
5554,4.183,0.000,0.289,0.000,1.212,0.002,0.000,24.677
5565,4.183,0.000,0.289,0.000,1.212,0.002,0.000,24.629
5576,4.183,0.000,0.289,0.000,1.212,0.002,0.000,24.614
5587,4.183,0.000,0.289,0.000,1.212,0.002,0.000,24.650
5598,4.183,0.000,0.289,0.000,1.212,0.002,0.000,24.655
5609,4.183,0.000,0.289,0.000,1.212,0.002,0.000,24.647
5620,4.183,0.000,0.289,0.000,1.212,0.002,0.000,24.626
5631,4.183,0.000,0.289,0.000,1.212,0.002,0.000,24.641
5642,4.183,0.000,0.289,0.000,1.212,0.002,0.000,24.613
5653,4.183,0.000,0.289,0.000,1.212,0.002,0.000,24.632
5664,4.183,0.000,0.289,0.000,1.212,0.002,0.000,24.656
5675,4.183,0.000,0.289,0.000,1.212,0.002,0.000,24.667
5686,4.183,0.000,0.289,0.000,1.212,0.002,0.000,24.664
5697,4.183,0.000,0.289,0.000,1.212,0.002,0.000,24.677
5708,4.183,0.000,0.289,0.000,1.212,0.002,0.000,24.652
5719,4.183,0.000,0.289,0.000,1.212,0.002,0.000,24.591
5730,4.183,0.000,0.289,0.000,1.212,0.002,0.000,24.640
5741,4.183,0.000,0.289,0.000,1.212,0.002,0.000,24.606
5752,4.183,0.000,0.289,0.000,1.212,0.002,0.000,24.688
5763,4.183,0.000,0.289,0.000,1.212,0.002,0.000,24.700
5774,4.183,0.000,0.289,0.000,1.212,0.002,0.000,24.665
5785,4.183,0.000,0.289,0.000,1.212,0.002,0.000,24.691
5796,4.183,0.000,0.289,0.000,1.212,0.002,0.000,24.624
5807,4.183,0.000,0.289,0.000,1.212,0.002,0.000,24.660
5818,4.183,0.000,0.289,0.000,1.212,0.002,0.000,24.643
5828,3.193,-16.754,0.289,0.005,1.212,0.017,-0.989,24.653
5839,3.057,-16.753,0.289,0.056,1.212,0.176,-0.008,25.695
5850,2.984,-16.753,0.289,0.107,1.212,0.331,-0.006,27.895
5861,2.926,-16.752,0.289,0.159,1.212,0.482,-0.005,30.277
5872,2.873,-16.752,0.289,0.210,1.212,0.630,-0.005,32.698
5883,2.810,-16.750,0.289,0.261,1.212,0.776,-0.007,35.111
5893,2.500,-16.749,0.289,0.310,1.212,0.909,0.281,37.523
5905,3.895,0.000,0.289,0.310,1.212,0.909,0.007,38.696
5916,3.946,0.000,0.289,0.310,1.212,0.909,0.004,39.107
5927,3.975,0.000,0.289,0.310,1.212,0.909,0.002,39.169
5938,3.994,0.000,0.289,0.310,1.212,0.909,0.002,39.056
5949,4.008,0.000,0.289,0.310,1.212,0.909,0.001,38.639
5960,4.017,0.000,0.289,0.310,1.212,0.909,0.001,38.108
5971,4.024,0.000,0.289,0.310,1.212,0.909,0.001,37.783
5982,4.030,0.000,0.289,0.310,1.212,0.909,0.000,37.069
5993,4.034,0.000,0.289,0.310,1.212,0.909,0.000,36.692
6004,4.037,0.000,0.289,0.310,1.212,0.909,0.000,36.309
6015,4.039,0.000,0.289,0.310,1.212,0.909,0.000,35.855
6026,4.041,0.000,0.289,0.310,1.212,0.909,0.000,35.403
6037,4.043,0.000,0.289,0.310,1.212,0.909,0.000,35.076
6048,4.045,0.000,0.289,0.310,1.212,0.909,0.000,34.648
6059,4.046,0.000,0.289,0.310,1.212,0.909,0.000,34.169
6070,4.048,0.000,0.289,0.310,1.212,0.909,0.000,33.797
6081,4.049,0.000,0.289,0.310,1.212,0.909,0.000,33.475
6092,4.050,0.000,0.289,0.310,1.212,0.909,0.000,33.170
6103,4.051,0.000,0.289,0.310,1.212,0.909,0.000,32.906
6114,4.052,0.000,0.289,0.310,1.212,0.909,0.000,32.514
6125,4.053,0.000,0.289,0.310,1.212,0.909,0.000,32.289
6136,4.054,0.000,0.289,0.310,1.212,0.909,0.000,32.045
6147,4.055,0.000,0.289,0.310,1.212,0.909,0.000,31.602
6158,4.056,0.000,0.289,0.310,1.212,0.909,0.000,31.361
6169,4.057,0.000,0.289,0.310,1.212,0.909,0.000,31.095
6180,4.057,0.000,0.289,0.310,1.212,0.909,0.000,30.991
6191,4.058,0.000,0.289,0.310,1.212,0.909,0.000,30.671
6202,4.059,0.000,0.289,0.310,1.212,0.909,0.000,30.584
6213,4.059,0.000,0.289,0.310,1.212,0.909,0.000,30.202
6224,4.060,0.000,0.289,0.310,1.212,0.909,0.000,30.023
6235,4.060,0.000,0.289,0.310,1.212,0.909,0.000,29.859
6246,4.060,0.000,0.289,0.310,1.212,0.909,0.000,29.567
6257,4.061,0.000,0.289,0.310,1.212,0.909,0.000,29.404
6268,4.061,0.000,0.289,0.310,1.212,0.909,0.000,29.233
6279,4.061,0.000,0.289,0.310,1.212,0.909,0.000,29.114
6290,4.061,0.000,0.289,0.310,1.212,0.909,0.000,28.983
6301,4.062,0.000,0.289,0.310,1.212,0.909,0.000,28.798
6312,4.062,0.000,0.289,0.310,1.212,0.909,0.000,28.617
6323,4.062,0.000,0.289,0.310,1.212,0.909,0.000,28.543
6334,4.062,0.000,0.289,0.310,1.212,0.909,0.000,28.446
6345,4.062,0.000,0.289,0.310,1.212,0.909,0.000,28.325
6356,4.062,0.000,0.289,0.310,1.212,0.909,0.000,28.249
6367,4.062,0.000,0.289,0.310,1.212,0.909,0.000,28.172
6378,4.063,0.000,0.289,0.310,1.212,0.909,0.000,27.971
6389,4.063,0.000,0.289,0.310,1.212,0.909,0.000,27.873
6400,4.063,0.000,0.289,0.310,1.212,0.909,0.000,27.733
6411,4.063,0.000,0.289,0.310,1.212,0.909,0.000,27.634
6422,4.063,0.000,0.289,0.310,1.212,0.909,0.000,27.544
6433,4.063,0.000,0.289,0.310,1.212,0.909,0.000,27.473
6444,4.063,0.000,0.289,0.310,1.212,0.909,0.000,27.299
6455,4.063,0.000,0.289,0.310,1.212,0.909,0.000,27.208
6466,4.063,0.000,0.289,0.310,1.212,0.909,0.000,27.090
6477,4.063,0.000,0.289,0.310,1.212,0.909,0.000,27.029
6488,4.063,0.000,0.289,0.310,1.212,0.909,0.000,26.989
6499,4.063,0.000,0.289,0.310,1.212,0.909,0.000,26.809
6510,4.063,0.000,0.289,0.310,1.212,0.909,0.000,26.767
6521,4.063,0.000,0.289,0.310,1.212,0.909,0.000,26.753
6532,4.063,0.000,0.289,0.310,1.212,0.909,0.000,26.711
6543,4.063,0.000,0.289,0.310,1.212,0.909,0.000,26.653
6554,4.063,0.000,0.289,0.310,1.212,0.909,0.000,26.644
6565,4.063,0.000,0.289,0.310,1.212,0.909,0.000,26.654
6576,4.063,0.000,0.289,0.310,1.212,0.909,0.000,26.623
6587,4.063,0.000,0.289,0.310,1.212,0.909,0.000,26.595
6598,4.063,0.000,0.289,0.310,1.212,0.909,0.000,26.588
6609,4.063,0.000,0.289,0.310,1.212,0.909,0.000,26.568
6620,4.064,0.000,0.289,0.310,1.212,0.909,0.000,26.545
6631,4.063,0.000,0.289,0.310,1.212,0.909,0.000,26.425
6642,4.064,0.000,0.289,0.310,1.212,0.909,0.000,26.260
6653,4.063,0.000,0.289,0.310,1.212,0.909,0.000,26.246
6664,4.064,0.000,0.289,0.310,1.212,0.909,0.000,26.130
6675,4.064,0.000,0.289,0.310,1.212,0.909,0.000,26.129
6686,4.064,0.000,0.289,0.310,1.212,0.909,0.000,26.008
6697,4.064,0.000,0.289,0.310,1.212,0.909,0.000,25.991
6708,4.064,0.000,0.289,0.310,1.212,0.909,0.000,25.980
6719,4.064,0.000,0.289,0.310,1.212,0.909,0.000,25.938
6730,4.064,0.000,0.289,0.310,1.212,0.909,0.000,25.884
6741,4.064,0.000,0.289,0.310,1.212,0.909,0.000,25.799
6752,4.064,0.000,0.289,0.310,1.212,0.909,0.000,25.808
6763,4.064,0.000,0.289,0.310,1.212,0.909,0.000,25.712
6774,4.064,0.000,0.289,0.310,1.212,0.909,0.000,25.673
6785,4.064,0.000,0.289,0.310,1.212,0.909,0.000,25.669
6796,4.064,0.000,0.289,0.310,1.212,0.909,0.000,25.630
6807,4.064,0.000,0.289,0.310,1.212,0.909,0.000,25.598
6818,4.064,0.000,0.289,0.310,1.212,0.909,0.000,25.534
6829,4.064,0.000,0.289,0.310,1.212,0.909,0.000,25.507
6840,4.064,0.000,0.289,0.310,1.212,0.909,0.000,25.479
6851,4.064,0.000,0.289,0.310,1.212,0.909,0.000,25.433
6862,4.064,0.000,0.289,0.310,1.212,0.909,0.000,25.376
6873,4.064,0.000,0.289,0.310,1.212,0.909,0.000,25.395
6884,4.064,0.000,0.289,0.310,1.212,0.909,0.000,25.402
6895,4.064,0.000,0.289,0.310,1.212,0.909,0.000,25.336
6906,4.064,0.000,0.289,0.310,1.212,0.909,0.000,25.364
6917,4.064,0.000,0.289,0.310,1.212,0.909,0.000,25.277
6928,4.064,0.000,0.289,0.310,1.212,0.909,0.000,25.279
6939,4.064,0.000,0.289,0.310,1.212,0.909,0.000,25.243
6950,4.064,0.000,0.289,0.310,1.212,0.909,0.000,25.218
6961,4.064,0.000,0.289,0.310,1.212,0.909,0.000,25.253
6972,4.064,0.000,0.289,0.310,1.212,0.909,0.000,25.252
6983,4.064,0.000,0.289,0.310,1.212,0.909,0.000,25.153
6994,4.064,0.000,0.289,0.310,1.212,0.909,0.000,25.114
7005,4.064,0.000,0.289,0.310,1.212,0.909,0.000,25.141
7016,4.064,0.000,0.289,0.310,1.212,0.909,0.000,25.123
7027,4.064,0.000,0.289,0.310,1.212,0.909,0.000,25.086
7038,4.064,0.000,0.289,0.310,1.212,0.909,0.000,25.051
7049,4.064,0.000,0.289,0.310,1.212,0.909,0.000,25.058
7060,4.064,0.000,0.289,0.310,1.212,0.909,0.000,25.033
7071,4.064,0.000,0.289,0.310,1.212,0.909,0.000,25.013
7082,4.064,0.000,0.289,0.310,1.212,0.909,0.000,25.043
7093,4.064,0.000,0.289,0.310,1.212,0.909,0.000,24.998
7104,4.064,0.000,0.289,0.310,1.212,0.909,0.000,25.010
7115,4.064,0.000,0.289,0.310,1.212,0.909,0.000,24.994
7126,4.064,0.000,0.289,0.310,1.212,0.909,0.000,24.999
7137,4.064,0.000,0.289,0.310,1.212,0.909,0.000,24.980
7148,4.064,0.000,0.289,0.310,1.212,0.909,0.000,24.991
7159,4.064,0.000,0.289,0.310,1.212,0.909,0.000,24.959
7170,4.064,0.000,0.289,0.310,1.212,0.909,0.000,24.926
7181,4.064,0.000,0.289,0.310,1.212,0.909,0.000,24.957
7192,4.064,0.000,0.289,0.310,1.212,0.909,0.000,24.941
7203,4.064,0.000,0.289,0.310,1.212,0.909,0.000,24.887
7214,4.064,0.000,0.289,0.310,1.212,0.909,0.000,24.940
7225,4.064,0.000,0.289,0.310,1.212,0.909,0.000,24.918
7236,4.064,0.000,0.289,0.310,1.212,0.909,0.000,24.918
7247,4.064,0.000,0.289,0.310,1.212,0.909,0.000,24.905
7258,4.064,0.000,0.289,0.310,1.212,0.909,0.000,24.868
7269,4.064,0.000,0.289,0.310,1.212,0.909,0.000,24.836
7280,4.064,0.000,0.289,0.310,1.212,0.909,0.000,24.868
7291,4.064,0.000,0.289,0.310,1.212,0.909,0.000,24.853
7302,4.064,0.000,0.289,0.310,1.212,0.909,0.000,24.849
7313,4.064,0.000,0.289,0.310,1.212,0.909,0.000,24.835
7324,4.064,0.000,0.289,0.310,1.212,0.909,0.000,24.880
7335,4.064,0.000,0.289,0.310,1.212,0.909,0.000,24.900
7346,4.064,0.000,0.289,0.310,1.212,0.909,0.000,24.803
7357,4.064,0.000,0.289,0.310,1.212,0.909,0.000,24.872
7368,4.064,0.000,0.289,0.310,1.212,0.909,0.000,24.822
7379,4.064,0.000,0.289,0.310,1.212,0.909,0.000,24.814
7390,4.064,0.000,0.289,0.310,1.212,0.909,0.000,24.817
7401,4.064,0.000,0.289,0.310,1.212,0.909,0.000,24.827
7412,4.064,0.000,0.289,0.310,1.212,0.909,0.000,24.805
7423,4.064,0.000,0.289,0.310,1.212,0.909,0.000,24.766
7434,4.064,0.000,0.289,0.310,1.212,0.909,0.000,24.782
7445,4.064,0.000,0.289,0.310,1.212,0.909,0.000,24.833
7456,4.064,0.000,0.289,0.310,1.212,0.909,0.000,24.800
7467,4.064,0.000,0.289,0.310,1.212,0.909,0.000,24.776
7478,4.064,0.000,0.289,0.310,1.212,0.909,0.000,24.799
7489,4.064,0.000,0.289,0.310,1.212,0.909,0.000,24.826
7500,4.064,0.000,0.289,0.310,1.212,0.909,0.000,24.724
7511,4.064,0.000,0.289,0.310,1.212,0.909,0.000,24.752
7522,4.064,0.000,0.289,0.310,1.212,0.909,0.000,24.748
7533,4.065,0.000,0.289,0.310,1.212,0.909,0.000,24.756
7544,4.065,0.000,0.289,0.310,1.212,0.909,0.000,24.734
7555,4.064,0.000,0.289,0.310,1.212,0.909,0.000,24.749
7566,4.064,0.000,0.289,0.310,1.212,0.909,0.000,24.782
7577,4.065,0.000,0.289,0.310,1.212,0.909,0.000,24.790
7588,4.064,0.000,0.289,0.310,1.212,0.909,0.000,24.755
7599,4.065,0.000,0.289,0.310,1.212,0.909,0.000,24.750
7610,4.064,0.000,0.289,0.310,1.212,0.909,0.000,24.690
7621,4.065,0.000,0.289,0.310,1.212,0.909,0.000,24.726
7632,4.064,0.000,0.289,0.310,1.212,0.909,0.000,24.735
7643,4.065,0.000,0.289,0.310,1.212,0.909,0.000,24.727
7654,4.064,0.000,0.289,0.310,1.212,0.909,0.000,24.733
7665,4.064,0.000,0.289,0.310,1.212,0.909,0.000,24.748
7676,4.064,0.000,0.289,0.310,1.212,0.909,0.000,24.698
7687,4.065,0.000,0.289,0.310,1.212,0.909,0.000,24.674
7698,4.065,0.000,0.289,0.310,1.212,0.909,0.000,24.701
7709,4.064,0.000,0.289,0.310,1.212,0.909,0.000,24.693
7720,4.065,0.000,0.289,0.310,1.212,0.909,0.000,24.709
7731,4.064,0.000,0.289,0.310,1.212,0.909,0.000,24.653
7742,4.065,0.000,0.289,0.310,1.212,0.909,0.000,24.722
7753,4.064,0.000,0.289,0.310,1.212,0.909,0.000,24.677
7764,4.064,0.000,0.289,0.310,1.212,0.909,0.000,24.709
7775,4.065,0.000,0.289,0.310,1.212,0.909,0.000,24.703
7786,4.065,0.000,0.289,0.310,1.212,0.909,0.000,24.702
7797,4.065,0.000,0.289,0.310,1.212,0.909,0.000,24.716
7808,4.065,0.000,0.289,0.310,1.212,0.909,0.000,24.730
7819,4.065,0.000,0.289,0.310,1.212,0.909,0.000,24.730
7830,4.064,0.000,0.289,0.310,1.212,0.909,0.000,24.702
7841,4.065,0.000,0.289,0.310,1.212,0.909,0.000,24.709
7852,4.065,0.000,0.289,0.310,1.212,0.909,0.000,24.671
7863,4.065,0.000,0.289,0.310,1.212,0.909,0.000,24.692
7874,4.065,0.000,0.289,0.310,1.212,0.909,0.000,24.679
7885,4.065,0.000,0.289,0.310,1.212,0.909,0.000,24.671
7896,4.065,0.000,0.289,0.310,1.212,0.909,0.000,24.680
7907,4.065,0.000,0.289,0.310,1.212,0.909,0.000,24.672
7918,4.065,0.000,0.289,0.310,1.212,0.909,0.000,24.673
7929,4.065,0.000,0.289,0.310,1.212,0.909,0.000,24.677
7940,4.064,0.000,0.289,0.310,1.212,0.909,0.000,24.710
7951,4.065,0.000,0.289,0.310,1.212,0.909,0.000,24.670
7962,4.065,0.000,0.289,0.310,1.212,0.909,0.000,24.637
7973,4.065,0.000,0.289,0.310,1.212,0.909,0.000,24.709
7984,4.065,0.000,0.289,0.310,1.212,0.909,0.000,24.683
7995,4.065,0.000,0.289,0.310,1.212,0.909,0.000,24.711
8006,4.065,0.000,0.289,0.310,1.212,0.909,0.000,24.702
8017,4.065,0.000,0.289,0.310,1.212,0.909,0.000,24.681
8028,4.065,0.000,0.289,0.310,1.212,0.909,0.000,24.695
8039,4.065,0.000,0.289,0.310,1.212,0.909,0.000,24.630
8050,4.065,0.000,0.289,0.310,1.212,0.909,0.000,24.663
8061,4.065,0.000,0.289,0.310,1.212,0.909,0.000,24.639
8072,4.065,0.000,0.289,0.310,1.212,0.909,0.000,24.662
8083,4.065,0.000,0.289,0.310,1.212,0.909,0.000,24.675
8094,4.065,0.000,0.289,0.310,1.212,0.909,0.000,24.685
8105,4.065,0.000,0.289,0.310,1.212,0.909,0.000,24.677
8116,4.065,0.000,0.289,0.310,1.212,0.909,0.000,24.686
8127,4.065,0.000,0.289,0.310,1.212,0.909,0.000,24.653
8138,4.065,0.000,0.289,0.310,1.212,0.909,0.000,24.634
8149,4.065,0.000,0.289,0.310,1.212,0.909,0.000,24.675
8160,4.065,0.000,0.289,0.310,1.212,0.909,0.000,24.643
8171,4.065,0.000,0.289,0.310,1.212,0.909,0.000,24.667
8182,4.065,0.000,0.289,0.310,1.212,0.909,0.000,24.659
8193,4.065,0.000,0.289,0.310,1.212,0.909,0.000,24.670
8204,4.065,0.000,0.289,0.310,1.212,0.909,0.000,24.685
8215,4.065,0.000,0.289,0.310,1.212,0.909,0.000,24.658
8226,4.065,0.000,0.289,0.310,1.212,0.909,0.000,24.680
8237,4.065,0.000,0.289,0.310,1.212,0.909,0.000,24.655
8248,4.065,0.000,0.289,0.310,1.212,0.909,0.000,24.686
8259,4.065,0.000,0.289,0.310,1.212,0.909,0.000,24.677
8270,4.065,0.000,0.289,0.310,1.212,0.909,0.000,24.653
8281,4.065,0.000,0.289,0.310,1.212,0.909,0.000,24.667
8292,4.065,0.000,0.289,0.310,1.212,0.909,0.000,24.656
8303,4.065,0.000,0.289,0.310,1.212,0.909,0.000,24.652
8314,4.065,0.000,0.289,0.310,1.212,0.909,0.000,24.673
8325,4.065,0.000,0.289,0.310,1.212,0.909,0.000,24.626
8336,4.065,0.000,0.289,0.310,1.212,0.909,0.000,24.686
8347,4.065,0.000,0.289,0.310,1.212,0.909,0.000,24.706
8358,4.065,0.000,0.289,0.310,1.212,0.909,0.000,24.641
8369,4.065,0.000,0.289,0.310,1.212,0.909,0.000,24.684
8380,4.065,0.000,0.289,0.310,1.212,0.909,0.000,24.643
8391,4.065,0.000,0.289,0.310,1.212,0.909,0.000,24.675
8402,4.065,0.000,0.289,0.310,1.212,0.909,0.000,24.656
8413,4.065,0.000,0.289,0.310,1.212,0.909,0.000,24.676
8424,4.065,0.000,0.289,0.310,1.212,0.909,0.000,24.619
8435,4.065,0.000,0.289,0.310,1.212,0.909,0.000,24.672
8446,4.065,0.000,0.289,0.310,1.212,0.909,0.000,24.627
8457,4.065,0.000,0.289,0.310,1.212,0.909,0.000,24.663
8468,4.065,0.000,0.289,0.310,1.212,0.909,0.000,24.648
8479,4.065,0.000,0.289,0.310,1.212,0.909,0.000,24.703
8490,4.065,0.000,0.289,0.310,1.212,0.909,0.000,24.639
8501,4.065,0.000,0.289,0.310,1.212,0.909,0.000,24.701
8512,4.065,0.000,0.289,0.310,1.212,0.909,0.000,24.651
8523,4.065,0.000,0.289,0.310,1.212,0.909,0.000,24.588
8534,4.065,0.000,0.289,0.310,1.212,0.909,0.000,24.634
8545,4.065,0.000,0.289,0.310,1.212,0.909,0.000,24.639
8556,4.065,0.000,0.289,0.310,1.212,0.909,0.000,24.666
8567,4.065,0.000,0.289,0.310,1.212,0.909,0.000,24.657
8578,4.065,0.000,0.289,0.310,1.212,0.909,0.000,24.650
8589,4.065,0.000,0.289,0.310,1.212,0.909,0.000,24.652
8600,4.065,0.000,0.289,0.310,1.212,0.909,0.000,24.651
8611,4.065,0.000,0.289,0.310,1.212,0.909,0.000,24.708
8622,4.065,0.000,0.289,0.310,1.212,0.909,0.000,24.635
8633,4.065,0.000,0.289,0.310,1.212,0.909,0.000,24.650
8644,4.065,0.000,0.289,0.310,1.212,0.909,0.000,24.646
8655,4.065,0.000,0.289,0.310,1.212,0.909,0.000,24.649
8666,4.065,0.000,0.289,0.310,1.212,0.909,0.000,24.638
8677,4.065,0.000,0.289,0.310,1.212,0.909,0.000,24.617
8688,4.065,0.000,0.289,0.310,1.212,0.909,0.000,24.635
8699,4.065,0.000,0.289,0.310,1.212,0.909,0.000,24.644
8710,4.065,0.000,0.289,0.310,1.212,0.909,0.000,24.660
8721,4.065,0.000,0.289,0.310,1.212,0.909,0.000,24.674
8732,4.065,0.000,0.289,0.310,1.212,0.909,0.000,24.646
8743,4.065,0.000,0.289,0.310,1.212,0.909,0.000,24.658
8754,4.065,0.000,0.289,0.310,1.212,0.909,0.000,24.698
8765,4.065,0.000,0.289,0.310,1.212,0.909,0.000,24.666
8776,4.065,0.000,0.289,0.310,1.212,0.909,0.000,24.672
8787,4.065,0.000,0.289,0.310,1.212,0.909,0.000,24.655
8798,4.065,0.000,0.289,0.310,1.212,0.909,0.000,24.634
8809,4.065,0.000,0.289,0.310,1.212,0.909,0.000,24.643
8820,4.065,0.000,0.289,0.310,1.212,0.909,0.000,24.647
8831,4.065,0.000,0.289,0.310,1.212,0.909,0.000,24.624
8842,4.065,0.000,0.289,0.310,1.212,0.909,0.000,24.620
8853,4.065,0.000,0.289,0.310,1.212,0.909,0.000,24.653
8864,4.065,0.000,0.289,0.310,1.212,0.909,0.000,24.622
8875,4.065,0.000,0.289,0.310,1.212,0.909,0.000,24.634
8886,4.065,0.000,0.289,0.310,1.212,0.909,0.000,24.623
8897,4.065,0.000,0.289,0.310,1.212,0.909,0.000,24.631
8908,4.065,0.000,0.289,0.310,1.212,0.909,0.000,24.626
8919,4.065,0.000,0.289,0.310,1.212,0.909,0.000,24.621
8930,4.065,0.000,0.289,0.310,1.212,0.909,0.000,24.631
8941,4.065,0.000,0.289,0.310,1.212,0.909,0.000,24.706
8952,4.065,0.000,0.289,0.310,1.212,0.909,0.000,24.630
8963,4.065,0.000,0.289,0.310,1.212,0.909,0.000,24.641
8974,4.065,0.000,0.289,0.310,1.212,0.909,0.000,24.618
8985,4.065,0.000,0.289,0.310,1.212,0.909,0.000,24.641
8996,4.065,0.000,0.289,0.310,1.212,0.909,0.000,24.669
9007,4.065,0.000,0.289,0.310,1.212,0.909,0.000,24.626
9018,4.065,0.000,0.289,0.310,1.212,0.909,0.000,24.608
9029,4.065,0.000,0.289,0.310,1.212,0.909,0.000,24.643
9040,4.065,0.000,0.289,0.310,1.212,0.909,0.000,24.628
9051,4.065,0.000,0.289,0.310,1.212,0.909,0.000,24.671
9062,4.065,0.000,0.289,0.310,1.212,0.909,0.000,24.660
9073,4.065,0.000,0.289,0.310,1.212,0.909,0.000,24.671
9084,4.065,0.000,0.289,0.310,1.212,0.909,0.000,24.662
9095,4.065,0.000,0.289,0.310,1.212,0.909,0.000,24.628
9106,4.065,0.000,0.289,0.310,1.212,0.909,0.000,24.624
9117,4.065,0.000,0.289,0.310,1.212,0.909,0.000,24.643
9128,4.065,0.000,0.289,0.310,1.212,0.909,0.000,24.666
9139,4.065,0.000,0.289,0.310,1.212,0.909,0.000,24.625
9150,4.065,0.000,0.289,0.310,1.212,0.909,0.000,24.661
9161,4.065,0.000,0.289,0.310,1.212,0.909,0.000,24.641
9172,4.065,0.000,0.289,0.310,1.212,0.909,0.000,24.608
9183,4.065,0.000,0.289,0.310,1.212,0.909,0.000,24.650
9194,4.065,0.000,0.289,0.310,1.212,0.909,0.000,24.634
9205,4.065,0.000,0.289,0.310,1.212,0.909,0.000,24.639
9216,4.065,0.000,0.289,0.310,1.212,0.909,0.000,24.640
9227,4.065,0.000,0.289,0.310,1.212,0.909,0.000,24.593
9238,4.065,0.000,0.289,0.310,1.212,0.909,0.000,24.648
9249,4.065,0.000,0.289,0.310,1.212,0.909,0.000,24.637
9260,4.065,0.000,0.289,0.310,1.212,0.909,0.000,24.597
9271,4.065,0.000,0.289,0.310,1.212,0.909,0.000,24.618
9282,4.065,0.000,0.289,0.310,1.212,0.909,0.000,24.659
9293,4.065,0.000,0.289,0.310,1.212,0.909,0.000,24.636
9304,4.065,0.000,0.289,0.310,1.212,0.909,0.000,24.615
9315,4.065,0.000,0.289,0.310,1.212,0.909,0.000,24.599
9326,4.065,0.000,0.289,0.310,1.212,0.909,0.000,24.613
9337,4.065,0.000,0.289,0.310,1.212,0.909,0.000,24.628
9348,4.065,0.000,0.289,0.310,1.212,0.909,0.000,24.638
9359,4.065,0.000,0.289,0.310,1.212,0.909,0.000,24.652
9370,4.065,0.000,0.289,0.310,1.212,0.909,0.000,24.598
9381,4.065,0.000,0.289,0.310,1.212,0.909,0.000,24.633
9392,4.065,0.000,0.289,0.310,1.212,0.909,0.000,24.616
9403,4.065,0.000,0.289,0.310,1.212,0.909,0.000,24.598
9414,4.065,0.000,0.289,0.310,1.212,0.909,0.000,24.596
9425,4.065,0.000,0.289,0.310,1.212,0.909,0.000,24.602
9436,4.065,0.000,0.289,0.310,1.212,0.909,0.000,24.644
9447,4.065,0.000,0.289,0.310,1.212,0.909,0.000,24.589
9458,4.065,0.000,0.289,0.310,1.212,0.909,0.000,24.648
9469,4.065,0.000,0.289,0.310,1.212,0.909,0.000,24.631
9480,4.065,0.000,0.289,0.310,1.212,0.909,0.000,24.645
9491,4.065,0.000,0.289,0.310,1.212,0.909,0.000,24.638
9494,4.065,0.000,0.289,0.310,1.212,0.909,0.000,24.641