File: data/T35/2C/1.csv
time_s,voltage_v,current_a,chargecapacity_ah,dischargecapacity_ah,charge_energy_wh,discharge_energy_wh,voltagedot_v_per_s,temp_degc
1,3.268,0.000,0.000,0.000,0.000,0.000,0.000,35.067
26,3.268,0.000,0.000,0.000,0.000,0.000,0.000,35.070
51,3.268,0.000,0.000,0.000,0.000,0.000,0.000,35.084
76,3.268,0.000,0.000,0.000,0.000,0.000,0.000,35.089
101,3.268,0.000,0.000,0.000,0.000,0.000,0.000,35.068
126,3.268,0.000,0.000,0.000,0.000,0.000,0.000,35.073
151,3.268,0.000,0.000,0.000,0.000,0.000,0.000,35.129
176,3.268,0.000,0.000,0.000,0.000,0.000,0.000,35.091
201,3.268,0.000,0.000,0.000,0.000,0.000,0.000,35.050
226,3.268,0.000,0.000,0.000,0.000,0.000,0.000,35.095
251,3.268,0.000,0.000,0.000,0.000,0.000,0.000,35.051
276,3.268,0.000,0.000,0.000,0.000,0.000,0.000,35.053
301,3.268,0.000,0.000,0.000,0.000,0.000,0.000,35.067
326,3.268,0.000,0.000,0.000,0.000,0.000,0.000,35.111
351,3.268,0.000,0.000,0.000,0.000,0.000,0.000,35.100
376,3.268,0.000,0.000,0.000,0.000,0.000,0.000,35.108
401,3.268,0.000,0.000,0.000,0.000,0.000,0.000,35.119
426,3.268,0.000,0.000,0.000,0.000,0.000,0.000,35.074
451,3.268,0.000,0.000,0.000,0.000,0.000,0.000,35.105
476,3.268,0.000,0.000,0.000,0.000,0.000,0.000,35.180
501,3.268,0.000,0.000,0.000,0.000,0.000,0.000,35.154
526,3.268,0.000,0.000,0.000,0.000,0.000,0.000,35.078
551,3.268,0.000,0.000,0.000,0.000,0.000,0.000,35.136
576,3.268,0.000,0.000,0.000,0.000,0.000,0.000,35.178
601,3.268,0.000,0.000,0.000,0.000,0.000,0.000,35.123
626,3.268,0.000,0.000,0.000,0.000,0.000,0.000,35.084
651,3.268,0.000,0.000,0.000,0.000,0.000,0.000,35.109
676,3.269,0.000,0.000,0.000,0.000,0.000,0.000,35.083
701,3.268,0.000,0.000,0.000,0.000,0.000,0.000,35.069
726,3.268,0.000,0.000,0.000,0.000,0.000,0.000,35.117
751,3.268,0.000,0.000,0.000,0.000,0.000,0.000,35.091
776,3.268,0.000,0.000,0.000,0.000,0.000,0.000,35.061
801,3.268,0.000,0.000,0.000,0.000,0.000,0.000,35.080
826,3.268,0.000,0.000,0.000,0.000,0.000,0.000,35.102
851,3.268,0.000,0.000,0.000,0.000,0.000,0.000,35.061
876,3.268,0.000,0.000,0.000,0.000,0.000,0.000,35.096
901,3.268,0.000,0.000,0.000,0.000,0.000,0.000,35.114
926,3.268,0.000,0.000,0.000,0.000,0.000,0.000,35.112
951,3.268,0.000,0.000,0.000,0.000,0.000,0.000,35.105
976,3.268,0.000,0.000,0.000,0.000,0.000,0.000,35.064
1001,3.268,0.000,0.000,0.000,0.000,0.000,0.000,35.110
1026,3.268,0.000,0.000,0.000,0.000,0.000,0.000,35.090
1051,3.268,0.000,0.000,0.000,0.000,0.000,0.000,35.085
1076,3.268,0.000,0.000,0.000,0.000,0.000,0.000,35.082
1101,3.268,0.000,0.000,0.000,0.000,0.000,0.000,35.074
1126,3.268,0.000,0.000,0.000,0.000,0.000,0.000,35.101
1151,3.268,0.000,0.000,0.000,0.000,0.000,0.000,35.087
1176,3.268,0.000,0.000,0.000,0.000,0.000,0.000,35.081
1201,3.268,0.000,0.000,0.000,0.000,0.000,0.000,35.063
1226,3.268,0.000,0.000,0.000,0.000,0.000,0.000,35.128
1251,3.268,0.000,0.000,0.000,0.000,0.000,0.000,35.080
1276,3.269,0.000,0.000,0.000,0.000,0.000,0.000,35.096
1301,3.268,0.000,0.000,0.000,0.000,0.000,0.000,35.104
1326,3.268,0.000,0.000,0.000,0.000,0.000,0.000,35.099
1351,3.268,0.000,0.000,0.000,0.000,0.000,0.000,35.104
1376,3.268,0.000,0.000,0.000,0.000,0.000,0.000,35.050
1401,3.269,0.000,0.000,0.000,0.000,0.000,0.000,35.090
1426,3.268,0.000,0.000,0.000,0.000,0.000,0.000,35.089
1451,3.268,0.000,0.000,0.000,0.000,0.000,0.000,35.074
1476,3.268,0.000,0.000,0.000,0.000,0.000,0.000,35.066
1501,3.268,0.000,0.000,0.000,0.000,0.000,0.000,35.083
1526,3.269,0.000,0.000,0.000,0.000,0.000,0.000,35.059
1551,3.269,0.000,0.000,0.000,0.000,0.000,0.000,35.082
1576,3.269,0.000,0.000,0.000,0.000,0.000,0.000,35.099
1601,3.268,0.000,0.000,0.000,0.000,0.000,0.000,35.062
1626,3.269,0.000,0.000,0.000,0.000,0.000,0.000,35.078
1651,3.269,0.000,0.000,0.000,0.000,0.000,0.000,35.101
1676,3.269,0.000,0.000,0.000,0.000,0.000,0.000,35.096
1701,3.269,0.000,0.000,0.000,0.000,0.000,0.000,35.126
1726,3.269,0.000,0.000,0.000,0.000,0.000,0.000,35.133
1751,3.269,0.000,0.000,0.000,0.000,0.000,0.000,35.120
1776,3.269,0.000,0.000,0.000,0.000,0.000,0.000,35.090
1801,3.269,0.000,0.000,0.000,0.000,0.000,0.000,35.089
1826,3.269,0.000,0.000,0.000,0.000,0.000,0.000,35.095
1851,3.269,0.000,0.000,0.000,0.000,0.000,0.000,35.069
1876,3.269,0.000,0.000,0.000,0.000,0.000,0.000,35.053
1901,3.269,0.000,0.000,0.000,0.000,0.000,0.000,35.069
1926,3.269,0.000,0.000,0.000,0.000,0.000,0.000,35.123
1951,3.269,0.000,0.000,0.000,0.000,0.000,0.000,35.103
1976,3.269,0.000,0.000,0.000,0.000,0.000,0.000,35.066
2001,3.269,0.000,0.000,0.000,0.000,0.000,0.000,35.077
2026,3.269,0.000,0.000,0.000,0.000,0.000,0.000,35.060
2051,3.269,0.000,0.000,0.000,0.000,0.000,0.000,35.064
2076,3.269,0.000,0.000,0.000,0.000,0.000,0.000,35.076
2101,3.269,0.000,0.000,0.000,0.000,0.000,0.000,35.101
2126,3.269,0.000,0.000,0.000,0.000,0.000,0.000,35.089
2151,3.269,0.000,0.000,0.000,0.000,0.000,0.000,35.071
2176,3.269,0.000,0.000,0.000,0.000,0.000,0.000,35.073
2201,3.269,0.000,0.000,0.000,0.000,0.000,0.000,35.044
2226,3.269,0.000,0.000,0.000,0.000,0.000,0.000,35.083
2251,3.269,0.000,0.000,0.000,0.000,0.000,0.000,35.068
2276,3.269,0.000,0.000,0.000,0.000,0.000,0.000,35.081
2301,3.269,0.000,0.000,0.000,0.000,0.000,0.000,35.104
2326,3.269,0.000,0.000,0.000,0.000,0.000,0.000,35.119
2351,3.269,0.000,0.000,0.000,0.000,0.000,0.000,35.068
2376,3.269,0.000,0.000,0.000,0.000,0.000,0.000,35.108
2401,3.269,0.000,0.000,0.000,0.000,0.000,0.000,35.075
2426,3.269,0.000,0.000,0.000,0.000,0.000,0.000,35.087
2451,3.269,0.000,0.000,0.000,0.000,0.000,0.000,35.068
2476,3.269,0.000,0.000,0.000,0.000,0.000,0.000,35.064
2501,3.269,0.000,0.000,0.000,0.000,0.000,0.000,35.040
2526,3.269,0.000,0.000,0.000,0.000,0.000,0.000,35.080
2551,3.269,0.000,0.000,0.000,0.000,0.000,0.000,35.111
2576,3.269,0.000,0.000,0.000,0.000,0.000,0.000,35.082
2601,3.269,0.000,0.000,0.000,0.000,0.000,0.000,35.065
2626,3.269,0.000,0.000,0.000,0.000,0.000,0.000,35.103
2651,3.269,0.000,0.000,0.000,0.000,0.000,0.000,35.084
2676,3.269,0.000,0.000,0.000,0.000,0.000,0.000,35.147
2701,3.269,0.000,0.000,0.000,0.000,0.000,0.000,35.092
2726,3.269,0.000,0.000,0.000,0.000,0.000,0.000,35.112
2751,3.269,0.000,0.000,0.000,0.000,0.000,0.000,35.087
2776,3.269,0.000,0.000,0.000,0.000,0.000,0.000,35.091
2801,3.269,0.000,0.000,0.000,0.000,0.000,0.000,35.030
2826,3.269,0.000,0.000,0.000,0.000,0.000,0.000,35.096
2851,3.269,0.000,0.000,0.000,0.000,0.000,0.000,35.087
2876,3.269,0.000,0.000,0.000,0.000,0.000,0.000,35.127
2901,3.269,0.000,0.000,0.000,0.000,0.000,0.000,35.097
2926,3.269,0.000,0.000,0.000,0.000,0.000,0.000,35.117
2951,3.269,0.000,0.000,0.000,0.000,0.000,0.000,35.060
2976,3.269,0.000,0.000,0.000,0.000,0.000,0.000,35.117
3001,3.269,0.000,0.000,0.000,0.000,0.000,0.000,35.096
3026,3.269,0.000,0.000,0.000,0.000,0.000,0.000,35.123
3051,3.269,0.000,0.000,0.000,0.000,0.000,0.000,35.093
3076,3.269,0.000,0.000,0.000,0.000,0.000,0.000,35.092
3101,3.269,0.000,0.000,0.000,0.000,0.000,0.000,35.096
3126,3.269,0.000,0.000,0.000,0.000,0.000,0.000,35.015
3151,3.269,0.000,0.000,0.000,0.000,0.000,0.000,35.069
3176,3.269,0.000,0.000,0.000,0.000,0.000,0.000,35.056
3201,3.269,0.000,0.000,0.000,0.000,0.000,0.000,35.091
3226,3.269,0.000,0.000,0.000,0.000,0.000,0.000,35.098
3251,3.269,0.000,0.000,0.000,0.000,0.000,0.000,35.068
3276,3.269,0.000,0.000,0.000,0.000,0.000,0.000,35.057
3301,3.269,0.000,0.000,0.000,0.000,0.000,0.000,35.092
3326,3.269,0.000,0.000,0.000,0.000,0.000,0.000,35.110
3351,3.269,0.000,0.000,0.000,0.000,0.000,0.000,35.076
3376,3.269,0.000,0.000,0.000,0.000,0.000,0.000,35.121
3401,3.269,0.000,0.000,0.000,0.000,0.000,0.000,35.083
3426,3.269,0.000,0.000,0.000,0.000,0.000,0.000,35.080
3451,3.269,0.000,0.000,0.000,0.000,0.000,0.000,35.130
3476,3.269,0.000,0.000,0.000,0.000,0.000,0.000,35.072
3501,3.269,0.000,0.000,0.000,0.000,0.000,0.000,35.061
3526,3.269,0.000,0.000,0.000,0.000,0.000,0.000,35.062
3551,3.269,0.000,0.000,0.000,0.000,0.000,0.000,35.085
3576,3.269,0.000,0.000,0.000,0.000,0.000,0.000,35.073
3600,3.269,0.000,0.000,0.000,0.000,0.000,0.000,35.073
3625,3.503,1.625,0.011,0.000,0.039,0.000,0.001,35.087
3650,3.524,1.625,0.023,0.000,0.079,0.000,0.001,35.095
3675,3.535,1.625,0.034,0.000,0.119,0.000,0.000,35.072
3700,3.540,1.625,0.045,0.000,0.159,0.000,0.000,35.151
3725,3.543,1.625,0.056,0.000,0.199,0.000,0.000,35.260
3750,3.545,1.625,0.068,0.000,0.239,0.000,0.000,35.271
3775,3.548,1.625,0.079,0.000,0.279,0.000,0.000,35.365
3800,3.550,1.625,0.090,0.000,0.319,0.000,0.000,35.439
3825,3.553,1.625,0.102,0.000,0.359,0.000,0.000,35.462
3850,3.555,1.625,0.113,0.000,0.399,0.000,0.000,35.539
3875,3.558,1.625,0.124,0.000,0.439,0.000,0.000,35.587
3900,3.561,1.625,0.135,0.000,0.479,0.000,0.000,35.559
3925,3.564,1.625,0.147,0.000,0.520,0.000,0.000,35.611
3950,3.566,1.625,0.158,0.000,0.560,0.000,0.000,35.668
3975,3.569,1.625,0.169,0.000,0.600,0.000,0.000,35.724
4000,3.572,1.625,0.181,0.000,0.640,0.000,0.000,35.774
4025,3.575,1.625,0.192,0.000,0.681,0.000,0.000,35.792
4050,3.577,1.625,0.203,0.000,0.721,0.000,0.000,35.844
4075,3.580,1.625,0.214,0.000,0.761,0.000,0.000,35.881
4100,3.582,1.625,0.226,0.000,0.802,0.000,0.000,35.884
4125,3.585,1.625,0.237,0.000,0.842,0.000,0.000,35.902
4150,3.588,1.625,0.248,0.000,0.883,0.000,0.000,35.971
4175,3.591,1.625,0.260,0.000,0.923,0.000,0.000,35.966
4200,3.593,1.625,0.271,0.000,0.964,0.000,0.000,35.990
4225,3.596,1.625,0.282,0.000,1.004,0.000,0.000,35.994
4250,3.599,1.625,0.293,0.000,1.045,0.000,0.000,35.993
4275,3.602,1.625,0.305,0.000,1.086,0.000,0.000,36.021
4300,3.605,1.625,0.316,0.000,1.126,0.000,0.000,36.031
4325,3.607,1.625,0.327,0.000,1.167,0.000,0.000,36.026
4350,3.610,1.625,0.339,0.000,1.208,0.000,0.000,36.003
4375,3.613,1.625,0.350,0.000,1.248,0.000,0.000,36.011
4400,3.616,1.625,0.361,0.000,1.289,0.000,0.000,36.027
4425,3.619,1.625,0.372,0.000,1.330,0.000,0.000,36.071
4450,3.622,1.625,0.384,0.000,1.371,0.000,0.000,36.017
4475,3.626,1.625,0.395,0.000,1.412,0.000,0.000,36.020
4500,3.629,1.625,0.406,0.000,1.453,0.000,0.000,36.014
4525,3.632,1.625,0.418,0.000,1.494,0.000,0.000,36.022
4550,3.636,1.625,0.429,0.000,1.535,0.000,0.000,36.011
4575,3.639,1.625,0.440,0.000,1.576,0.000,0.000,36.023
4600,3.642,1.625,0.451,0.000,1.617,0.000,0.000,36.012
4625,3.646,1.625,0.463,0.000,1.658,0.000,0.000,36.056
4650,3.649,1.625,0.474,0.000,1.699,0.000,0.000,35.999
4675,3.652,1.625,0.485,0.000,1.740,0.000,0.000,36.000
4700,3.655,1.625,0.497,0.000,1.782,0.000,0.000,35.968
4725,3.658,1.625,0.508,0.000,1.823,0.000,0.000,35.939
4750,3.661,1.625,0.519,0.000,1.864,0.000,0.000,35.964
4775,3.664,1.625,0.530,0.000,1.906,0.000,0.000,35.957
4800,3.667,1.625,0.542,0.000,1.947,0.000,0.000,35.939
4825,3.670,1.625,0.553,0.000,1.988,0.000,0.000,35.935
4850,3.672,1.625,0.564,0.000,2.030,0.000,0.000,35.926
4875,3.675,1.625,0.576,0.000,2.071,0.000,0.000,35.918
4900,3.677,1.625,0.587,0.000,2.113,0.000,0.000,35.937
4925,3.680,1.625,0.598,0.000,2.154,0.000,0.000,35.961
4950,3.682,1.625,0.609,0.000,2.196,0.000,0.000,35.868
4975,3.684,1.625,0.621,0.000,2.237,0.000,0.000,35.912
5000,3.686,1.625,0.632,0.000,2.279,0.000,0.000,35.883
5025,3.689,1.625,0.643,0.000,2.321,0.000,0.000,35.942
5050,3.691,1.625,0.655,0.000,2.362,0.000,0.000,35.894
5075,3.693,1.625,0.666,0.000,2.404,0.000,0.000,35.952
5100,3.696,1.625,0.677,0.000,2.446,0.000,0.000,35.907
5125,3.698,1.625,0.688,0.000,2.487,0.000,0.000,35.944
5150,3.700,1.625,0.700,0.000,2.529,0.000,0.000,35.900
5175,3.703,1.625,0.711,0.000,2.571,0.000,0.000,35.897
5200,3.705,1.625,0.722,0.000,2.613,0.000,0.000,35.929
5225,3.707,1.625,0.734,0.000,2.654,0.000,0.000,35.914
5250,3.710,1.625,0.745,0.000,2.696,0.000,0.000,35.956
5275,3.712,1.625,0.756,0.000,2.738,0.000,0.000,35.948
5300,3.714,1.625,0.767,0.000,2.780,0.000,0.000,35.975
5325,3.717,1.625,0.779,0.000,2.822,0.000,0.000,35.971
5350,3.719,1.625,0.790,0.000,2.864,0.000,0.000,35.984
5375,3.722,1.625,0.801,0.000,2.906,0.000,0.000,35.975
5400,3.724,1.625,0.813,0.000,2.948,0.000,0.000,35.969
5425,3.726,1.625,0.824,0.000,2.990,0.000,0.000,35.986
5450,3.729,1.625,0.835,0.000,3.032,0.000,0.000,35.944
5475,3.731,1.625,0.846,0.000,3.074,0.000,0.000,36.005
5500,3.733,1.625,0.858,0.000,3.116,0.000,0.000,36.010
5525,3.736,1.625,0.869,0.000,3.158,0.000,0.000,36.033
5550,3.738,1.625,0.880,0.000,3.201,0.000,0.000,35.981
5575,3.740,1.625,0.892,0.000,3.243,0.000,0.000,36.014
5600,3.743,1.625,0.903,0.000,3.285,0.000,0.000,36.012
5625,3.745,1.625,0.914,0.000,3.327,0.000,0.000,36.043
5650,3.747,1.625,0.925,0.000,3.370,0.000,0.000,36.022
5675,3.750,1.625,0.937,0.000,3.412,0.000,0.000,36.047
5700,3.752,1.625,0.948,0.000,3.454,0.000,0.000,36.087
5725,3.754,1.625,0.959,0.000,3.497,0.000,0.000,36.029
5750,3.757,1.625,0.971,0.000,3.539,0.000,0.000,36.047
5775,3.759,1.625,0.982,0.000,3.581,0.000,0.000,36.085
5800,3.761,1.625,0.993,0.000,3.624,0.000,0.000,36.089
5825,3.764,1.625,1.004,0.000,3.666,0.000,0.000,36.102
5850,3.766,1.625,1.016,0.000,3.709,0.000,0.000,36.074
5875,3.768,1.625,1.027,0.000,3.751,0.000,0.000,36.154
5900,3.771,1.625,1.038,0.000,3.794,0.000,0.000,36.129
5925,3.773,1.625,1.050,0.000,3.836,0.000,0.000,36.143
5950,3.775,1.625,1.061,0.000,3.879,0.000,0.000,36.175
5975,3.777,1.625,1.072,0.000,3.922,0.000,0.000,36.168
6000,3.780,1.625,1.083,0.000,3.964,0.000,0.000,36.141
6025,3.782,1.625,1.095,0.000,4.007,0.000,0.000,36.152
6050,3.784,1.625,1.106,0.000,4.050,0.000,0.000,36.194
6075,3.786,1.625,1.117,0.000,4.092,0.000,0.000,36.201
6100,3.788,1.625,1.129,0.000,4.135,0.000,0.000,36.191
6125,3.790,1.625,1.140,0.000,4.178,0.000,0.000,36.179
6150,3.793,1.625,1.151,0.000,4.221,0.000,0.000,36.185
6175,3.795,1.625,1.162,0.000,4.263,0.000,0.000,36.193
6200,3.797,1.625,1.174,0.000,4.306,0.000,0.000,36.183
6225,3.799,1.625,1.185,0.000,4.349,0.000,0.000,36.198
6250,3.801,1.625,1.196,0.000,4.392,0.000,0.000,36.219
6275,3.803,1.625,1.208,0.000,4.435,0.000,0.000,36.191
6300,3.805,1.625,1.219,0.000,4.478,0.000,0.000,36.216
6325,3.807,1.625,1.230,0.000,4.521,0.000,0.000,36.205
6350,3.809,1.625,1.241,0.000,4.564,0.000,0.000,36.244
6375,3.811,1.625,1.253,0.000,4.607,0.000,0.000,36.209
6400,3.813,1.625,1.264,0.000,4.650,0.000,0.000,36.209
6425,3.815,1.625,1.275,0.000,4.693,0.000,0.000,36.239
6450,3.818,1.625,1.287,0.000,4.736,0.000,0.000,36.234
6475,3.820,1.625,1.298,0.000,4.779,0.000,0.000,36.228
6500,3.822,1.625,1.309,0.000,4.822,0.000,0.000,36.285
6525,3.824,1.625,1.320,0.000,4.865,0.000,0.000,36.229
6550,3.826,1.625,1.332,0.000,4.909,0.000,0.000,36.245
6575,3.829,1.625,1.343,0.000,4.952,0.000,0.000,36.258
6600,3.831,1.625,1.354,0.000,4.995,0.000,0.000,36.233
6625,3.833,1.625,1.366,0.000,5.038,0.000,0.000,36.274
6650,3.835,1.625,1.377,0.000,5.081,0.000,0.000,36.245
6675,3.838,1.625,1.388,0.000,5.125,0.000,0.000,36.231
6700,3.840,1.625,1.399,0.000,5.168,0.000,0.000,36.268
6725,3.843,1.625,1.411,0.000,5.211,0.000,0.000,36.263
6750,3.845,1.625,1.422,0.000,5.255,0.000,0.000,36.269
6775,3.847,1.625,1.433,0.000,5.298,0.000,0.000,36.256
6800,3.850,1.625,1.445,0.000,5.342,0.000,0.000,36.315
6825,3.852,1.625,1.456,0.000,5.385,0.000,0.000,36.277
6850,3.855,1.625,1.467,0.000,5.429,0.000,0.000,36.298
6875,3.857,1.625,1.478,0.000,5.472,0.000,0.000,36.284
6900,3.860,1.625,1.490,0.000,5.516,0.000,0.000,36.300
6925,3.863,1.625,1.501,0.000,5.559,0.000,0.000,36.289
6950,3.865,1.625,1.512,0.000,5.603,0.000,0.000,36.302
6975,3.868,1.625,1.524,0.000,5.647,0.000,0.000,36.284
7000,3.870,1.625,1.535,0.000,5.690,0.000,0.000,36.324
7025,3.873,1.625,1.546,0.000,5.734,0.000,0.000,36.263
7050,3.876,1.625,1.557,0.000,5.778,0.000,0.000,36.282
7075,3.879,1.625,1.569,0.000,5.821,0.000,0.000,36.308
7100,3.882,1.625,1.580,0.000,5.865,0.000,0.000,36.231
7125,3.884,1.625,1.591,0.000,5.909,0.000,0.000,36.275
7150,3.887,1.625,1.603,0.000,5.953,0.000,0.000,36.263
7175,3.890,1.625,1.614,0.000,5.997,0.000,0.000,36.319
7200,3.893,1.625,1.625,0.000,6.041,0.000,0.000,36.253
7225,3.896,1.625,1.636,0.000,6.085,0.000,0.000,36.308
7250,3.899,1.625,1.648,0.000,6.129,0.000,0.000,36.328
7275,3.902,1.625,1.659,0.000,6.173,0.000,0.000,36.240
7300,3.905,1.625,1.670,0.000,6.217,0.000,0.000,36.264
7325,3.908,1.625,1.682,0.000,6.261,0.000,0.000,36.317
7350,3.911,1.625,1.693,0.000,6.305,0.000,0.000,36.273
7375,3.914,1.625,1.704,0.000,6.349,0.000,0.000,36.303
7400,3.917,1.625,1.715,0.000,6.393,0.000,0.000,36.276
7425,3.920,1.625,1.727,0.000,6.437,0.000,0.000,36.315
7450,3.923,1.625,1.738,0.000,6.482,0.000,0.000,36.294
7475,3.927,1.625,1.749,0.000,6.526,0.000,0.000,36.305
7500,3.930,1.625,1.761,0.000,6.570,0.000,0.000,36.282
7525,3.933,1.625,1.772,0.000,6.615,0.000,0.000,36.268
7550,3.936,1.625,1.783,0.000,6.659,0.000,0.000,36.264
7575,3.939,1.625,1.794,0.000,6.704,0.000,0.000,36.259
7600,3.942,1.625,1.806,0.000,6.748,0.000,0.000,36.303
7625,3.946,1.625,1.817,0.000,6.793,0.000,0.000,36.281
7650,3.949,1.625,1.828,0.000,6.837,0.000,0.000,36.252
7675,3.952,1.625,1.840,0.000,6.882,0.000,0.000,36.273
7700,3.955,1.625,1.851,0.000,6.926,0.000,0.000,36.309
7725,3.958,1.625,1.862,0.000,6.971,0.000,0.000,36.281
7750,3.961,1.625,1.874,0.000,7.016,0.000,0.000,36.310
7775,3.965,1.625,1.885,0.000,7.060,0.000,0.000,36.282
7800,3.968,1.625,1.896,0.000,7.105,0.000,0.000,36.317
7825,3.971,1.625,1.907,0.000,7.150,0.000,0.000,36.310
7850,3.974,1.625,1.919,0.000,7.195,0.000,0.000,36.281
7875,3.978,1.625,1.930,0.000,7.240,0.000,0.000,36.282
7900,3.981,1.625,1.941,0.000,7.285,0.000,0.000,36.292
7925,3.984,1.625,1.953,0.000,7.330,0.000,0.000,36.267
7950,3.987,1.625,1.964,0.000,7.374,0.000,0.000,36.249
7975,3.990,1.625,1.975,0.000,7.420,0.000,0.000,36.242
8000,3.994,1.625,1.986,0.000,7.465,0.000,0.000,36.267
8025,3.997,1.625,1.998,0.000,7.510,0.000,0.000,36.280
8050,4.000,1.625,2.009,0.000,7.555,0.000,0.000,36.302
8075,4.003,1.625,2.020,0.000,7.600,0.000,0.000,36.280
8100,4.006,1.625,2.032,0.000,7.645,0.000,0.000,36.268
8125,4.010,1.625,2.043,0.000,7.690,0.000,0.000,36.322
8150,4.013,1.625,2.054,0.000,7.736,0.000,0.000,36.256
8175,4.016,1.625,2.065,0.000,7.781,0.000,0.000,36.303
8200,4.019,1.625,2.077,0.000,7.826,0.000,0.000,36.245
8225,4.023,1.625,2.088,0.000,7.872,0.000,0.000,36.284
8250,4.026,1.625,2.099,0.000,7.917,0.000,0.000,36.280
8275,4.029,1.625,2.111,0.000,7.963,0.000,0.000,36.237
8300,4.032,1.625,2.122,0.000,8.008,0.000,0.000,36.260
8325,4.035,1.625,2.133,0.000,8.054,0.000,0.000,36.240
8350,4.038,1.625,2.144,0.000,8.099,0.000,0.000,36.310
8375,4.042,1.625,2.156,0.000,8.145,0.000,0.000,36.248
8400,4.044,1.625,2.167,0.000,8.190,0.000,0.000,36.232
8425,4.048,1.625,2.178,0.000,8.236,0.000,0.000,36.224
8450,4.051,1.625,2.190,0.000,8.282,0.000,0.000,36.228
8475,4.054,1.625,2.201,0.000,8.327,0.000,0.000,36.263
8500,4.057,1.625,2.212,0.000,8.373,0.000,0.000,36.233
8525,4.060,1.625,2.223,0.000,8.419,0.000,0.000,36.222
8550,4.064,1.625,2.235,0.000,8.465,0.000,0.000,36.215
8575,4.067,1.625,2.246,0.000,8.511,0.000,0.000,36.225
8600,4.070,1.625,2.257,0.000,8.557,0.000,0.000,36.241
8625,4.073,1.625,2.269,0.000,8.603,0.000,0.000,36.236
8650,4.076,1.625,2.280,0.000,8.649,0.000,0.000,36.183
8675,4.079,1.625,2.291,0.000,8.695,0.000,0.000,36.233
8700,4.083,1.625,2.302,0.000,8.741,0.000,0.000,36.254
8725,4.086,1.625,2.314,0.000,8.787,0.000,0.000,36.185
8750,4.089,1.625,2.325,0.000,8.833,0.000,0.000,36.216
8775,4.092,1.625,2.336,0.000,8.879,0.000,0.000,36.205
8800,4.095,1.625,2.348,0.000,8.925,0.000,0.000,36.200
8825,4.099,1.625,2.359,0.000,8.972,0.000,0.000,36.236
8850,4.102,1.625,2.370,0.000,9.018,0.000,0.000,36.170
8875,4.106,1.625,2.381,0.000,9.064,0.000,0.000,36.246
8900,4.109,1.625,2.393,0.000,9.110,0.000,0.000,36.210
8925,4.112,1.625,2.404,0.000,9.157,0.000,0.000,36.211
8950,4.116,1.625,2.415,0.000,9.203,0.000,0.000,36.229
8975,4.119,1.625,2.427,0.000,9.250,0.000,0.000,36.260
9000,4.123,1.625,2.438,0.000,9.296,0.000,0.000,36.252
9025,4.126,1.625,2.449,0.000,9.343,0.000,0.000,36.232
9050,4.130,1.625,2.460,0.000,9.389,0.000,0.000,36.218
9075,4.134,1.625,2.472,0.000,9.436,0.000,0.000,36.259
9100,4.138,1.625,2.483,0.000,9.483,0.000,0.000,36.248
9125,4.141,1.625,2.494,0.000,9.529,0.000,0.000,36.272
9150,4.145,1.625,2.506,0.000,9.576,0.000,0.000,36.250
9175,4.149,1.625,2.517,0.000,9.623,0.000,0.000,36.241
9200,4.153,1.625,2.528,0.000,9.670,0.000,0.000,36.256
9225,4.157,1.625,2.539,0.000,9.717,0.000,0.000,36.290
9250,4.161,1.625,2.551,0.000,9.764,0.000,0.000,36.297
9275,4.165,1.625,2.562,0.000,9.811,0.000,0.000,36.305
9300,4.169,1.625,2.573,0.000,9.858,0.000,0.000,36.266
9325,4.174,1.625,2.585,0.000,9.905,0.000,0.000,36.301
9350,4.178,1.625,2.596,0.000,9.952,0.000,0.000,36.284
9375,4.182,1.625,2.607,0.000,9.999,0.000,0.000,36.312
9400,4.187,1.625,2.618,0.000,10.046,0.000,0.000,36.305
9425,4.191,1.625,2.630,0.000,10.094,0.000,0.000,36.350
9450,4.195,1.625,2.641,0.000,10.141,0.000,0.000,36.265
9475,4.200,1.625,2.652,0.000,10.188,0.000,0.000,36.315
9499,4.200,1.583,2.663,0.000,10.234,0.000,0.000,36.345
9524,4.200,1.541,2.674,0.000,10.279,0.000,0.000,36.365
9549,4.200,1.504,2.684,0.000,10.324,0.000,0.000,36.369
9574,4.200,1.469,2.695,0.000,10.367,0.000,0.000,36.326
9599,4.200,1.436,2.705,0.000,10.409,0.000,0.000,36.338
9624,4.200,1.404,2.715,0.000,10.451,0.000,0.000,36.315
9649,4.200,1.374,2.724,0.000,10.491,0.000,0.000,36.298
9674,4.200,1.343,2.734,0.000,10.531,0.000,0.000,36.294
9699,4.200,1.315,2.743,0.000,10.570,0.000,0.000,36.265
9724,4.200,1.287,2.752,0.000,10.607,0.000,0.000,36.238
9749,4.200,1.259,2.761,0.000,10.645,0.000,0.000,36.246
9774,4.200,1.234,2.770,0.000,10.681,0.000,0.000,36.220
9799,4.200,1.207,2.778,0.000,10.717,0.000,0.000,36.199
9824,4.200,1.182,2.786,0.000,10.751,0.000,0.000,36.157
9849,4.200,1.158,2.794,0.000,10.785,0.000,0.000,36.150
9874,4.200,1.134,2.802,0.000,10.819,0.000,0.000,36.158
9899,4.200,1.112,2.810,0.000,10.852,0.000,0.000,36.118
9924,4.200,1.089,2.818,0.000,10.884,0.000,0.000,36.119
9949,4.200,1.068,2.825,0.000,10.915,0.000,0.000,36.079
9974,4.200,1.048,2.833,0.000,10.946,0.000,0.000,36.078
9999,4.200,1.028,2.840,0.000,10.976,0.000,0.000,36.040
10024,4.200,1.008,2.847,0.000,11.006,0.000,0.000,35.965
10049,4.200,0.989,2.854,0.000,11.035,0.000,0.000,35.976
10074,4.200,0.971,2.861,0.000,11.064,0.000,0.000,35.970
10099,4.200,0.953,2.867,0.000,11.092,0.000,0.000,35.946
10124,4.200,0.936,2.874,0.000,11.119,0.000,0.000,35.919
10149,4.200,0.920,2.880,0.000,11.146,0.000,0.000,35.901
10174,4.200,0.904,2.887,0.000,11.173,0.000,0.000,35.896
10199,4.200,0.888,2.893,0.000,11.199,0.000,0.000,35.855
10224,4.200,0.873,2.899,0.000,11.225,0.000,0.000,35.849
10249,4.200,0.858,2.905,0.000,11.250,0.000,0.000,35.841
10274,4.200,0.844,2.911,0.000,11.275,0.000,0.000,35.798
10299,4.200,0.830,2.917,0.000,11.299,0.000,0.000,35.780
10324,4.200,0.817,2.922,0.000,11.323,0.000,0.000,35.743
10349,4.200,0.804,2.928,0.000,11.347,0.000,0.000,35.757
10374,4.200,0.791,2.934,0.000,11.370,0.000,0.000,35.720
10399,4.200,0.779,2.939,0.000,11.393,0.000,0.000,35.721
10424,4.200,0.767,2.944,0.000,11.416,0.000,0.000,35.711
10449,4.200,0.755,2.950,0.000,11.438,0.000,0.000,35.698
10474,4.200,0.744,2.955,0.000,11.460,0.000,0.000,35.701
10499,4.200,0.733,2.960,0.000,11.481,0.000,0.000,35.691
10524,4.200,0.721,2.965,0.000,11.502,0.000,0.000,35.616
10549,4.200,0.711,2.970,0.000,11.523,0.000,0.000,35.654
10574,4.200,0.701,2.975,0.000,11.544,0.000,0.000,35.655
10599,4.200,0.689,2.980,0.000,11.564,0.000,0.000,35.588
10624,4.200,0.680,2.985,0.000,11.584,0.000,0.000,35.600
10649,4.200,0.669,2.989,0.000,11.604,0.000,0.000,35.533
10674,4.200,0.659,2.994,0.000,11.623,0.000,0.000,35.579
10699,4.200,0.650,2.998,0.000,11.642,0.000,0.000,35.554
10724,4.200,0.641,3.003,0.000,11.661,0.000,0.000,35.587
10749,4.200,0.631,3.007,0.000,11.680,0.000,0.000,35.584
10774,4.200,0.622,3.012,0.000,11.698,0.000,0.000,35.559
10799,4.200,0.613,3.016,0.000,11.716,0.000,0.000,35.561
10824,4.200,0.603,3.020,0.000,11.734,0.000,0.000,35.525
10849,4.200,0.595,3.024,0.000,11.751,0.000,0.000,35.494
10874,4.200,0.585,3.028,0.000,11.768,0.000,0.000,35.502
10899,4.200,0.576,3.032,0.000,11.785,0.000,0.000,35.488
10924,4.200,0.568,3.036,0.000,11.802,0.000,0.000,35.460
10949,4.200,0.559,3.040,0.000,11.818,0.000,0.000,35.431
10974,4.200,0.550,3.044,0.000,11.834,0.000,0.000,35.462
10999,4.200,0.542,3.048,0.000,11.850,0.000,0.000,35.443
11024,4.200,0.533,3.052,0.000,11.866,0.000,0.000,35.434
11049,4.200,0.526,3.055,0.000,11.882,0.000,0.000,35.447
11074,4.200,0.517,3.059,0.000,11.897,0.000,0.000,35.422
11099,4.200,0.508,3.063,0.000,11.912,0.000,0.000,35.486
11124,4.200,0.500,3.066,0.000,11.926,0.000,0.000,35.415
11149,4.200,0.492,3.070,0.000,11.941,0.000,0.000,35.402
11174,4.200,0.484,3.073,0.000,11.955,0.000,0.000,35.421
11199,4.200,0.476,3.076,0.000,11.969,0.000,0.000,35.408
11224,4.200,0.468,3.080,0.000,11.983,0.000,0.000,35.388
11249,4.200,0.461,3.083,0.000,11.996,0.000,0.000,35.390
11274,4.200,0.453,3.086,0.000,12.010,0.000,0.000,35.389
11299,4.200,0.445,3.089,0.000,12.023,0.000,0.000,35.389
11324,4.200,0.438,3.092,0.000,12.036,0.000,0.000,35.374
11349,4.200,0.430,3.095,0.000,12.048,0.000,0.000,35.324
11374,4.200,0.423,3.098,0.000,12.061,0.000,0.000,35.336
11399,4.200,0.415,3.101,0.000,12.073,0.000,0.000,35.334
11424,4.200,0.408,3.104,0.000,12.085,0.000,0.000,35.355
11449,4.200,0.401,3.107,0.000,12.097,0.000,0.000,35.306
11474,4.200,0.393,3.109,0.000,12.108,0.000,0.000,35.336
11499,4.200,0.386,3.112,0.000,12.120,0.000,0.000,35.356
11524,4.200,0.379,3.115,0.000,12.131,0.000,0.000,35.355
11549,4.200,0.373,3.117,0.000,12.142,0.000,0.000,35.288
11574,4.200,0.366,3.120,0.000,12.153,0.000,0.000,35.345
11599,4.200,0.359,3.122,0.000,12.163,0.000,0.000,35.323
11624,4.200,0.352,3.125,0.000,12.173,0.000,0.000,35.331
11649,4.200,0.345,3.127,0.000,12.184,0.000,0.000,35.319
11674,4.200,0.339,3.130,0.000,12.194,0.000,0.000,35.327
11699,4.200,0.332,3.132,0.000,12.203,0.000,0.000,35.256
11724,4.200,0.326,3.134,0.000,12.213,0.000,0.000,35.289
11749,4.200,0.320,3.137,0.000,12.222,0.000,0.000,35.276
11774,4.200,0.313,3.139,0.000,12.232,0.000,0.000,35.269
11799,4.200,0.307,3.141,0.000,12.241,0.000,0.000,35.286
11824,4.200,0.302,3.143,0.000,12.250,0.000,0.000,35.258
11849,4.200,0.295,3.145,0.000,12.258,0.000,0.000,35.269
11874,4.200,0.289,3.147,0.000,12.267,0.000,0.000,35.237
11899,4.200,0.283,3.149,0.000,12.275,0.000,0.000,35.243
11924,4.200,0.278,3.151,0.000,12.283,0.000,0.000,35.269
11949,4.200,0.273,3.153,0.000,12.291,0.000,0.000,35.259
11974,4.200,0.266,3.155,0.000,12.299,0.000,0.000,35.268
11999,4.200,0.261,3.157,0.000,12.307,0.000,0.000,35.247
12024,4.200,0.256,3.158,0.000,12.314,0.000,0.000,35.236
12049,4.200,0.250,3.160,0.000,12.322,0.000,0.000,35.247
12074,4.200,0.245,3.162,0.000,12.329,0.000,0.000,35.217
12099,4.200,0.240,3.164,0.000,12.336,0.000,0.000,35.195
12124,4.200,0.235,3.165,0.000,12.343,0.000,0.000,35.216
12149,4.200,0.231,3.167,0.000,12.350,0.000,0.000,35.242
12174,4.200,0.226,3.168,0.000,12.357,0.000,0.000,35.251
12199,4.200,0.221,3.170,0.000,12.363,0.000,0.000,35.208
12224,4.200,0.216,3.172,0.000,12.369,0.000,0.000,35.189
12249,4.200,0.212,3.173,0.000,12.376,0.000,0.000,35.223
12274,4.200,0.207,3.175,0.000,12.382,0.000,0.000,35.244
12299,4.200,0.203,3.176,0.000,12.388,0.000,0.000,35.202
12324,4.200,0.198,3.177,0.000,12.394,0.000,0.000,35.253
12349,4.200,0.194,3.179,0.000,12.399,0.000,0.000,35.199
12374,4.200,0.190,3.180,0.000,12.405,0.000,0.000,35.200
12399,4.200,0.186,3.181,0.000,12.410,0.000,0.000,35.240
12424,4.200,0.182,3.183,0.000,12.416,0.000,0.000,35.220
12449,4.200,0.178,3.184,0.000,12.421,0.000,0.000,35.186
12474,4.200,0.174,3.185,0.000,12.426,0.000,0.000,35.222
12499,4.200,0.170,3.186,0.000,12.431,0.000,0.000,35.163
12524,4.200,0.167,3.187,0.000,12.436,0.000,0.000,35.216
12549,4.200,0.163,3.189,0.000,12.441,0.000,0.000,35.173
12574,4.200,0.159,3.190,0.000,12.446,0.000,0.000,35.199
12599,4.200,0.156,3.191,0.000,12.450,0.000,0.000,35.190
12624,4.200,0.153,3.192,0.000,12.455,0.000,0.000,35.141
12649,4.200,0.149,3.193,0.000,12.459,0.000,0.000,35.165
12674,4.200,0.146,3.194,0.000,12.463,0.000,0.000,35.147
12699,4.200,0.143,3.195,0.000,12.468,0.000,0.000,35.146
12724,4.200,0.140,3.196,0.000,12.472,0.000,0.000,35.196
12749,4.200,0.137,3.197,0.000,12.476,0.000,0.000,35.149
12774,4.200,0.134,3.198,0.000,12.480,0.000,0.000,35.122
12799,4.200,0.131,3.199,0.000,12.484,0.000,0.000,35.123
12824,4.200,0.128,3.200,0.000,12.487,0.000,0.000,35.142
12849,4.200,0.125,3.201,0.000,12.491,0.000,0.000,35.134
12874,4.200,0.122,3.201,0.000,12.495,0.000,0.000,35.159
12899,4.200,0.120,3.202,0.000,12.498,0.000,0.000,35.176
12924,4.200,0.118,3.203,0.000,12.502,0.000,0.000,35.137
12949,4.200,0.114,3.204,0.000,12.505,0.000,0.000,35.147
12974,4.200,0.113,3.205,0.000,12.508,0.000,0.000,35.150
12999,4.200,0.110,3.205,0.000,12.512,0.000,0.000,35.163
13024,4.200,0.108,3.206,0.000,12.515,0.000,0.000,35.165
13049,4.200,0.105,3.207,0.000,12.518,0.000,0.000,35.144
13074,4.200,0.103,3.208,0.000,12.521,0.000,0.000,35.093
13099,4.200,0.102,3.208,0.000,12.524,0.000,0.000,35.124
13124,4.200,0.099,3.209,0.000,12.527,0.000,0.000,35.147
13149,4.200,0.097,3.210,0.000,12.530,0.000,0.000,35.118
13174,4.200,0.095,3.210,0.000,12.533,0.000,0.000,35.113
13199,4.200,0.093,3.211,0.000,12.535,0.000,0.000,35.133
13224,4.200,0.091,3.212,0.000,12.538,0.000,0.000,35.168
13249,4.200,0.089,3.212,0.000,12.541,0.000,0.000,35.134
13274,4.200,0.087,3.213,0.000,12.543,0.000,0.000,35.145
13299,4.200,0.085,3.214,0.000,12.546,0.000,0.000,35.156
13324,4.200,0.084,3.214,0.000,12.548,0.000,0.000,35.145
13349,4.200,0.082,3.215,0.000,12.551,0.000,0.000,35.156
13374,4.200,0.080,3.215,0.000,12.553,0.000,0.000,35.152
13399,4.200,0.079,3.216,0.000,12.555,0.000,0.000,35.182
13424,4.200,0.077,3.216,0.000,12.557,0.000,0.000,35.139
13449,4.200,0.075,3.217,0.000,12.560,0.000,0.000,35.137
13474,4.200,0.074,3.217,0.000,12.562,0.000,0.000,35.109
13499,4.200,0.072,3.218,0.000,12.564,0.000,0.000,35.099
13524,4.200,0.071,3.218,0.000,12.566,0.000,0.000,35.106
13549,4.200,0.070,3.219,0.000,12.568,0.000,0.000,35.139
13574,4.200,0.068,3.219,0.000,12.570,0.000,0.000,35.131
13599,4.200,0.066,3.220,0.000,12.572,0.000,0.000,35.095
13623,4.194,0.000,3.220,0.000,12.574,0.000,0.000,35.136
13648,4.193,0.000,3.220,0.000,12.574,0.000,0.000,35.126
13673,4.193,0.000,3.220,0.000,12.574,0.000,0.000,35.135
13698,4.192,0.000,3.220,0.000,12.574,0.000,0.000,35.167
13723,4.192,0.000,3.220,0.000,12.574,0.000,0.000,35.143
13748,4.191,0.000,3.220,0.000,12.574,0.000,0.000,35.154
13773,4.191,0.000,3.220,0.000,12.574,0.000,0.000,35.112
13798,4.191,0.000,3.220,0.000,12.574,0.000,0.000,35.105
13823,4.190,0.000,3.220,0.000,12.574,0.000,0.000,35.106
13848,4.190,0.000,3.220,0.000,12.574,0.000,0.000,35.126
13873,4.190,0.000,3.220,0.000,12.574,0.000,0.000,35.121
13898,4.190,0.000,3.220,0.000,12.574,0.000,0.000,35.077
13923,4.190,0.000,3.220,0.000,12.574,0.000,0.000,35.108
13948,4.189,0.000,3.220,0.000,12.574,0.000,0.000,35.135
13973,4.189,0.000,3.220,0.000,12.574,0.000,0.000,35.131
13998,4.189,0.000,3.220,0.000,12.574,0.000,0.000,35.137
14023,4.189,0.000,3.220,0.000,12.574,0.000,0.000,35.145
14048,4.189,0.000,3.220,0.000,12.574,0.000,0.000,35.077
14073,4.189,0.000,3.220,0.000,12.574,0.000,0.000,35.112
14098,4.188,0.000,3.220,0.000,12.574,0.000,0.000,35.122
14123,4.188,0.000,3.220,0.000,12.574,0.000,0.000,35.128
14148,4.188,0.000,3.220,0.000,12.574,0.000,0.000,35.097
14173,4.188,0.000,3.220,0.000,12.574,0.000,0.000,35.123
14198,4.188,0.000,3.220,0.000,12.574,0.000,0.000,35.110
14223,4.188,0.000,3.220,0.000,12.574,0.000,0.000,35.113
14248,4.187,0.000,3.220,0.000,12.574,0.000,0.000,35.044
14273,4.187,0.000,3.220,0.000,12.574,0.000,0.000,35.081
14298,4.187,0.000,3.220,0.000,12.574,0.000,0.000,35.121
14323,4.187,0.000,3.220,0.000,12.574,0.000,0.000,35.086
14348,4.187,0.000,3.220,0.000,12.574,0.000,0.000,35.074
14373,4.187,0.000,3.220,0.000,12.574,0.000,0.000,35.100
14398,4.187,0.000,3.220,0.000,12.574,0.000,0.000,35.116
14423,4.187,0.000,3.220,0.000,12.574,0.000,0.000,35.098
14448,4.186,0.000,3.220,0.000,12.574,0.000,0.000,35.124
14473,4.186,0.000,3.220,0.000,12.574,0.000,0.000,35.108
14498,4.186,0.000,3.220,0.000,12.574,0.000,0.000,35.070
14523,4.186,0.000,3.220,0.000,12.574,0.000,0.000,35.084
14548,4.186,0.000,3.220,0.000,12.574,0.000,0.000,35.086
14573,4.186,0.000,3.220,0.000,12.574,0.000,0.000,35.102
14598,4.186,0.000,3.220,0.000,12.574,0.000,0.000,35.055
14623,4.186,0.000,3.220,0.000,12.574,0.000,0.000,35.125
14648,4.186,0.000,3.220,0.000,12.574,0.000,0.000,35.080
14673,4.186,0.000,3.220,0.000,12.574,0.000,0.000,35.129
14698,4.186,0.000,3.220,0.000,12.574,0.000,0.000,35.139
14723,4.186,0.000,3.220,0.000,12.574,0.000,0.000,35.092
14748,4.185,0.000,3.220,0.000,12.574,0.000,0.000,35.073
14773,4.185,0.000,3.220,0.000,12.574,0.000,0.000,35.080
14798,4.185,0.000,3.220,0.000,12.574,0.000,0.000,35.068
14823,4.185,0.000,3.220,0.000,12.574,0.000,0.000,35.084
14848,4.185,0.000,3.220,0.000,12.574,0.000,0.000,35.069
14873,4.185,0.000,3.220,0.000,12.574,0.000,0.000,35.101
14898,4.185,0.000,3.220,0.000,12.574,0.000,0.000,35.130
14923,4.185,0.000,3.220,0.000,12.574,0.000,0.000,35.111
14948,4.185,0.000,3.220,0.000,12.574,0.000,0.000,35.088
14973,4.185,0.000,3.220,0.000,12.574,0.000,0.000,35.043
14998,4.185,0.000,3.220,0.000,12.574,0.000,0.000,35.081
15023,4.185,0.000,3.220,0.000,12.574,0.000,0.000,35.076
15048,4.185,0.000,3.220,0.000,12.574,0.000,0.000,35.090
15073,4.185,0.000,3.220,0.000,12.574,0.000,0.000,35.082
15098,4.184,0.000,3.220,0.000,12.574,0.000,0.000,35.107
15123,4.184,0.000,3.220,0.000,12.574,0.000,0.000,35.074
15148,4.184,0.000,3.220,0.000,12.574,0.000,0.000,35.099
15173,4.184,0.000,3.220,0.000,12.574,0.000,0.000,35.068
15198,4.184,0.000,3.220,0.000,12.574,0.000,0.000,35.082
15223,4.184,0.000,3.220,0.000,12.574,0.000,0.000,35.085
15248,4.184,0.000,3.220,0.000,12.574,0.000,0.000,35.076
15273,4.184,0.000,3.220,0.000,12.574,0.000,0.000,35.103
15298,4.184,0.000,3.220,0.000,12.574,0.000,0.000,35.077
15323,4.184,0.000,3.220,0.000,12.574,0.000,0.000,35.067
15348,4.184,0.000,3.220,0.000,12.574,0.000,0.000,35.091
15373,4.184,0.000,3.220,0.000,12.574,0.000,0.000,35.127
15398,4.184,0.000,3.220,0.000,12.574,0.000,0.000,35.095
15423,4.184,0.000,3.220,0.000,12.574,0.000,0.000,35.098
15448,4.184,0.000,3.220,0.000,12.574,0.000,0.000,35.148
15473,4.184,0.000,3.220,0.000,12.574,0.000,0.000,35.075
15498,4.183,0.000,3.220,0.000,12.574,0.000,0.000,35.083
15523,4.184,0.000,3.220,0.000,12.574,0.000,0.000,35.099
15548,4.183,0.000,3.220,0.000,12.574,0.000,0.000,35.073
15573,4.183,0.000,3.220,0.000,12.574,0.000,0.000,35.068
15598,4.183,0.000,3.220,0.000,12.574,0.000,0.000,35.069
15623,4.183,0.000,3.220,0.000,12.574,0.000,0.000,35.072
15648,4.183,0.000,3.220,0.000,12.574,0.000,0.000,35.063
15673,4.183,0.000,3.220,0.000,12.574,0.000,0.000,35.119
15698,4.183,0.000,3.220,0.000,12.574,0.000,0.000,35.113
15723,4.183,0.000,3.220,0.000,12.574,0.000,0.000,35.106
15748,4.183,0.000,3.220,0.000,12.574,0.000,0.000,35.054
15773,4.183,0.000,3.220,0.000,12.574,0.000,0.000,35.088
15798,4.183,0.000,3.220,0.000,12.574,0.000,0.000,35.095
15823,4.183,0.000,3.220,0.000,12.574,0.000,0.000,35.067
15848,4.183,0.000,3.220,0.000,12.574,0.000,0.000,35.070
15873,4.183,0.000,3.220,0.000,12.574,0.000,0.000,35.091
15898,4.183,0.000,3.220,0.000,12.574,0.000,0.000,35.055
15923,4.183,0.000,3.220,0.000,12.574,0.000,0.000,35.115
15948,4.183,0.000,3.220,0.000,12.574,0.000,0.000,35.111
15973,4.183,0.000,3.220,0.000,12.574,0.000,0.000,35.115
15998,4.182,0.000,3.220,0.000,12.574,0.000,0.000,35.118
16023,4.183,0.000,3.220,0.000,12.574,0.000,0.000,35.105
16048,4.182,0.000,3.220,0.000,12.574,0.000,0.000,35.119
16073,4.182,0.000,3.220,0.000,12.574,0.000,0.000,35.069
16098,4.183,0.000,3.220,0.000,12.574,0.000,0.000,35.080
16123,4.182,0.000,3.220,0.000,12.574,0.000,0.000,35.102
16148,4.182,0.000,3.220,0.000,12.574,0.000,0.000,35.070
16173,4.182,0.000,3.220,0.000,12.574,0.000,0.000,35.056
16198,4.182,0.000,3.220,0.000,12.574,0.000,0.000,35.114
16223,4.182,0.000,3.220,0.000,12.574,0.000,0.000,35.120
16248,4.182,0.000,3.220,0.000,12.574,0.000,0.000,35.072
16273,4.182,0.000,3.220,0.000,12.574,0.000,0.000,35.085
16298,4.182,0.000,3.220,0.000,12.574,0.000,0.000,35.091
16323,4.182,0.000,3.220,0.000,12.574,0.000,0.000,35.092
16348,4.182,0.000,3.220,0.000,12.574,0.000,0.000,35.101
16373,4.182,0.000,3.220,0.000,12.574,0.000,0.000,35.102
16398,4.182,0.000,3.220,0.000,12.574,0.000,0.000,35.093
16423,4.182,0.000,3.220,0.000,12.574,0.000,0.000,35.088
16448,4.182,0.000,3.220,0.000,12.574,0.000,0.000,35.104
16473,4.182,0.000,3.220,0.000,12.574,0.000,0.000,35.109
16498,4.182,0.000,3.220,0.000,12.574,0.000,0.000,35.110
16523,4.182,0.000,3.220,0.000,12.574,0.000,0.000,35.097
16548,4.181,0.000,3.220,0.000,12.574,0.000,0.000,35.160
16573,4.182,0.000,3.220,0.000,12.574,0.000,0.000,35.121
16598,4.182,0.000,3.220,0.000,12.574,0.000,0.000,35.105
16623,4.182,0.000,3.220,0.000,12.574,0.000,0.000,35.074
16648,4.182,0.000,3.220,0.000,12.574,0.000,0.000,35.096
16673,4.182,0.000,3.220,0.000,12.574,0.000,0.000,35.078
16698,4.182,0.000,3.220,0.000,12.574,0.000,0.000,35.118
16723,4.181,0.000,3.220,0.000,12.574,0.000,0.000,35.117
16748,4.182,0.000,3.220,0.000,12.574,0.000,0.000,35.101
16773,4.182,0.000,3.220,0.000,12.574,0.000,0.000,35.148
16798,4.181,0.000,3.220,0.000,12.574,0.000,0.000,35.111
16823,4.181,0.000,3.220,0.000,12.574,0.000,0.000,35.098
16848,4.181,0.000,3.220,0.000,12.574,0.000,0.000,35.052
16873,4.181,0.000,3.220,0.000,12.574,0.000,0.000,35.058
16898,4.181,0.000,3.220,0.000,12.574,0.000,0.000,35.072
16923,4.181,0.000,3.220,0.000,12.574,0.000,0.000,35.061
16948,4.181,0.000,3.220,0.000,12.574,0.000,0.000,35.032
16973,4.181,0.000,3.220,0.000,12.574,0.000,0.000,35.071
16998,4.181,0.000,3.220,0.000,12.574,0.000,0.000,35.072
17023,4.181,0.000,3.220,0.000,12.574,0.000,0.000,35.075
17048,4.181,0.000,3.220,0.000,12.574,0.000,0.000,35.081
17073,4.181,0.000,3.220,0.000,12.574,0.000,0.000,35.073
17098,4.181,0.000,3.220,0.000,12.574,0.000,0.000,35.072
17123,4.181,0.000,3.220,0.000,12.574,0.000,0.000,35.058
17148,4.181,0.000,3.220,0.000,12.574,0.000,0.000,35.038
17173,4.181,0.000,3.220,0.000,12.574,0.000,0.000,35.109
17198,4.181,0.000,3.220,0.000,12.574,0.000,0.000,35.070
17222,3.575,-6.698,3.220,0.009,12.574,0.033,-0.005,35.034
17247,3.514,-6.697,3.220,0.056,12.574,0.198,-0.001,35.574
17272,3.487,-6.697,3.220,0.102,12.574,0.361,-0.001,36.204
17297,3.469,-6.696,3.220,0.149,12.574,0.522,-0.001,36.913
17322,3.454,-6.696,3.220,0.195,12.574,0.683,-0.001,37.496
17347,3.439,-6.696,3.220,0.242,12.574,0.844,-0.001,38.080
17372,3.424,-6.696,3.220,0.288,12.574,1.003,0.000,38.675
17397,3.409,-6.696,3.220,0.335,12.574,1.162,-0.001,39.179
17422,3.392,-6.696,3.220,0.381,12.574,1.320,-0.001,39.690
17447,3.376,-6.696,3.220,0.428,12.574,1.478,-0.001,40.027
17472,3.359,-6.696,3.220,0.474,12.574,1.634,-0.001,40.436
17497,3.343,-6.696,3.220,0.521,12.574,1.790,-0.001,40.753
17522,3.326,-6.696,3.220,0.567,12.574,1.945,-0.001,41.075
17547,3.310,-6.696,3.220,0.614,12.574,2.099,-0.001,41.396
17572,3.293,-6.696,3.220,0.660,12.574,2.253,-0.001,41.682
17597,3.277,-6.696,3.220,0.707,12.574,2.406,-0.001,41.981
17622,3.262,-6.696,3.220,0.753,12.574,2.558,-0.001,42.227
17647,3.246,-6.696,3.220,0.800,12.574,2.709,-0.001,42.414
17672,3.230,-6.696,3.220,0.846,12.574,2.860,0.000,42.692
17697,3.215,-6.696,3.220,0.893,12.574,3.009,-0.001,42.853
17722,3.199,-6.696,3.220,0.939,12.574,3.159,-0.001,43.097
17747,3.183,-6.696,3.220,0.986,12.574,3.307,-0.001,43.297
17772,3.167,-6.696,3.220,1.032,12.574,3.455,0.000,43.528
17797,3.151,-6.696,3.220,1.079,12.574,3.601,0.000,43.717
17822,3.136,-6.696,3.220,1.125,12.574,3.748,-0.001,43.927
17847,3.120,-6.696,3.220,1.172,12.574,3.893,-0.001,44.062
17872,3.104,-6.696,3.220,1.218,12.574,4.038,-0.001,44.269
17897,3.089,-6.696,3.220,1.265,12.574,4.182,-0.001,44.503
17922,3.073,-6.696,3.220,1.311,12.574,4.325,-0.001,44.635
17947,3.058,-6.696,3.220,1.358,12.574,4.468,-0.001,44.720
17972,3.043,-6.696,3.220,1.404,12.574,4.609,-0.001,44.905
17997,3.028,-6.696,3.220,1.451,12.574,4.751,-0.001,45.019
18022,3.014,-6.696,3.220,1.497,12.574,4.891,-0.001,45.159
18047,3.000,-6.696,3.220,1.544,12.574,5.031,-0.001,45.253
18072,2.986,-6.696,3.220,1.590,12.574,5.170,0.000,45.350
18097,2.972,-6.697,3.220,1.637,12.574,5.309,-0.001,45.505
18122,2.959,-6.697,3.220,1.683,12.574,5.446,-0.001,45.638
18147,2.946,-6.697,3.220,1.730,12.574,5.584,0.000,45.804
18172,2.933,-6.697,3.220,1.776,12.574,5.720,-0.001,45.969
18197,2.920,-6.697,3.220,1.823,12.574,5.857,0.000,46.065
18222,2.908,-6.697,3.220,1.869,12.574,5.992,0.000,46.173
18247,2.895,-6.697,3.220,1.916,12.574,6.127,-0.001,46.279
18272,2.882,-6.697,3.220,1.962,12.574,6.261,-0.001,46.427
18297,2.870,-6.697,3.220,2.009,12.574,6.395,-0.001,46.521
18322,2.857,-6.697,3.220,2.055,12.574,6.528,-0.001,46.667
18347,2.844,-6.697,3.220,2.102,12.574,6.661,0.000,46.774
18372,2.831,-6.697,3.220,2.148,12.574,6.793,0.000,46.900
18397,2.818,-6.697,3.220,2.195,12.574,6.924,-0.001,47.081
18422,2.804,-6.698,3.220,2.241,12.574,7.055,-0.001,47.203
18447,2.790,-6.697,3.220,2.288,12.574,7.185,-0.001,47.362
18472,2.776,-6.697,3.220,2.334,12.574,7.314,-0.001,47.483
18497,2.761,-6.697,3.220,2.381,12.574,7.443,-0.001,47.590
18522,2.746,-6.697,3.220,2.427,12.574,7.571,-0.001,47.796
18547,2.730,-6.697,3.220,2.474,12.574,7.699,-0.001,47.891
18572,2.714,-6.697,3.220,2.520,12.574,7.825,-0.001,48.057
18597,2.697,-6.698,3.220,2.567,12.574,7.951,-0.001,48.171
18622,2.680,-6.698,3.220,2.614,12.574,8.076,-0.001,48.357
18647,2.662,-6.698,3.220,2.660,12.574,8.200,-0.001,48.525
18672,2.643,-6.697,3.220,2.707,12.574,8.324,-0.001,48.598
18697,2.624,-6.698,3.220,2.753,12.574,8.446,-0.001,48.820
18722,2.604,-6.698,3.220,2.800,12.574,8.568,-0.001,48.963
18747,2.583,-6.698,3.220,2.846,12.574,8.688,-0.001,49.143
18772,2.560,-6.698,3.220,2.893,12.574,8.808,-0.001,49.300
18797,2.535,-6.698,3.220,2.939,12.574,8.926,-0.001,49.491
18822,2.507,-6.698,3.220,2.986,12.574,9.044,-0.001,49.720
18847,3.247,0.000,3.220,2.996,12.574,9.069,0.003,49.507
18872,3.298,0.000,3.220,2.996,12.574,9.069,0.001,48.629
18897,3.320,0.000,3.220,2.996,12.574,9.069,0.000,47.572
18922,3.330,0.000,3.220,2.996,12.574,9.069,0.000,46.734
18947,3.334,0.000,3.220,2.996,12.574,9.069,0.000,45.909
18972,3.337,0.000,3.220,2.996,12.574,9.069,0.000,45.105
18997,3.338,0.000,3.220,2.996,12.574,9.069,0.000,44.313
19022,3.339,0.000,3.220,2.996,12.574,9.069,0.000,43.603
19047,3.340,0.000,3.220,2.996,12.574,9.069,0.000,42.968
19072,3.341,0.000,3.220,2.996,12.574,9.069,0.000,42.426
19097,3.341,0.000,3.220,2.996,12.574,9.069,0.000,41.859
19122,3.342,0.000,3.220,2.996,12.574,9.069,0.000,41.318
19147,3.342,0.000,3.220,2.996,12.574,9.069,0.000,40.804
19172,3.342,0.000,3.220,2.996,12.574,9.069,0.000,40.380
19197,3.342,0.000,3.220,2.996,12.574,9.069,0.000,40.022
19222,3.343,0.000,3.220,2.996,12.574,9.069,0.000,39.623
19247,3.343,0.000,3.220,2.996,12.574,9.069,0.000,39.210
19272,3.343,0.000,3.220,2.996,12.574,9.069,0.000,38.952
19297,3.344,0.000,3.220,2.996,12.574,9.069,0.000,38.631
19322,3.343,0.000,3.220,2.996,12.574,9.069,0.000,38.391
19347,3.344,0.000,3.220,2.996,12.574,9.069,0.000,38.125
19372,3.344,0.000,3.220,2.996,12.574,9.069,0.000,37.888
19397,3.344,0.000,3.220,2.996,12.574,9.069,0.000,37.711
19422,3.344,0.000,3.220,2.996,12.574,9.069,0.000,37.449
19447,3.344,0.000,3.220,2.996,12.574,9.069,0.000,37.357
19472,3.344,0.000,3.220,2.996,12.574,9.069,0.000,37.148
19497,3.344,0.000,3.220,2.996,12.574,9.069,0.000,36.934
19522,3.344,0.000,3.220,2.996,12.574,9.069,0.000,36.828
19547,3.344,0.000,3.220,2.996,12.574,9.069,0.000,36.690
19572,3.344,0.000,3.220,2.996,12.574,9.069,0.000,36.586
19597,3.344,0.000,3.220,2.996,12.574,9.069,0.000,36.447
19622,3.344,0.000,3.220,2.996,12.574,9.069,0.000,36.358
19647,3.344,0.000,3.220,2.996,12.574,9.069,0.000,36.234
19672,3.344,0.000,3.220,2.996,12.574,9.069,0.000,36.158
19697,3.344,0.000,3.220,2.996,12.574,9.069,0.000,36.105
19722,3.344,0.000,3.220,2.996,12.574,9.069,0.000,36.010
19747,3.344,0.000,3.220,2.996,12.574,9.069,0.000,35.960
19772,3.344,0.000,3.220,2.996,12.574,9.069,0.000,35.871
19797,3.344,0.000,3.220,2.996,12.574,9.069,0.000,35.782
19822,3.344,0.000,3.220,2.996,12.574,9.069,0.000,35.771
19847,3.344,0.000,3.220,2.996,12.574,9.069,0.000,35.675
19872,3.344,0.000,3.220,2.996,12.574,9.069,0.000,35.674
19897,3.344,0.000,3.220,2.996,12.574,9.069,0.000,35.612
19922,3.344,0.000,3.220,2.996,12.574,9.069,0.000,35.593
19947,3.344,0.000,3.220,2.996,12.574,9.069,0.000,35.540
19972,3.344,0.000,3.220,2.996,12.574,9.069,0.000,35.499
19997,3.344,0.000,3.220,2.996,12.574,9.069,0.000,35.496
20022,3.344,0.000,3.220,2.996,12.574,9.069,0.000,35.449
20047,3.344,0.000,3.220,2.996,12.574,9.069,0.000,35.411
20072,3.344,0.000,3.220,2.996,12.574,9.069,0.000,35.375
20097,3.344,0.000,3.220,2.996,12.574,9.069,0.000,35.357
20122,3.344,0.000,3.220,2.996,12.574,9.069,0.000,35.319
20147,3.344,0.000,3.220,2.996,12.574,9.069,0.000,35.238
20172,3.344,0.000,3.220,2.996,12.574,9.069,0.000,35.259
20197,3.344,0.000,3.220,2.996,12.574,9.069,0.000,35.283
20222,3.344,0.000,3.220,2.996,12.574,9.069,0.000,35.297
20247,3.344,0.000,3.220,2.996,12.574,9.069,0.000,35.273
20272,3.344,0.000,3.220,2.996,12.574,9.069,0.000,35.249
20297,3.344,0.000,3.220,2.996,12.574,9.069,0.000,35.268
20322,3.344,0.000,3.220,2.996,12.574,9.069,0.000,35.243
20347,3.344,0.000,3.220,2.996,12.574,9.069,0.000,35.236
20372,3.344,0.000,3.220,2.996,12.574,9.069,0.000,35.218
20397,3.344,0.000,3.220,2.996,12.574,9.069,0.000,35.191
20422,3.344,0.000,3.220,2.996,12.574,9.069,0.000,35.213
20447,3.344,0.000,3.220,2.996,12.574,9.069,0.000,35.197
20472,3.343,0.000,3.220,2.996,12.574,9.069,0.000,35.199
20497,3.344,0.000,3.220,2.996,12.574,9.069,0.000,35.170
20522,3.344,0.000,3.220,2.996,12.574,9.069,0.000,35.131
20547,3.344,0.000,3.220,2.996,12.574,9.069,0.000,35.151
20572,3.344,0.000,3.220,2.996,12.574,9.069,0.000,35.160
20597,3.344,0.000,3.220,2.996,12.574,9.069,0.000,35.137
20622,3.344,0.000,3.220,2.996,12.574,9.069,0.000,35.164
20647,3.344,0.000,3.220,2.996,12.574,9.069,0.000,35.169
20672,3.343,0.000,3.220,2.996,12.574,9.069,0.000,35.139
20697,3.344,0.000,3.220,2.996,12.574,9.069,0.000,35.153
20722,3.344,0.000,3.220,2.996,12.574,9.069,0.000,35.163
20747,3.343,0.000,3.220,2.996,12.574,9.069,0.000,35.161
20772,3.344,0.000,3.220,2.996,12.574,9.069,0.000,35.110
20797,3.343,0.000,3.220,2.996,12.574,9.069,0.000,35.154
20822,3.343,0.000,3.220,2.996,12.574,9.069,0.000,35.130
20847,3.343,0.000,3.220,2.996,12.574,9.069,0.000,35.145
20872,3.343,0.000,3.220,2.996,12.574,9.069,0.000,35.107
20897,3.343,0.000,3.220,2.996,12.574,9.069,0.000,35.161
20922,3.343,0.000,3.220,2.996,12.574,9.069,0.000,35.137
20947,3.343,0.000,3.220,2.996,12.574,9.069,0.000,35.119
20972,3.343,0.000,3.220,2.996,12.574,9.069,0.000,35.131
20997,3.344,0.000,3.220,2.996,12.574,9.069,0.000,35.167
21022,3.343,0.000,3.220,2.996,12.574,9.069,0.000,35.134
21047,3.344,0.000,3.220,2.996,12.574,9.069,0.000,35.160
21072,3.343,0.000,3.220,2.996,12.574,9.069,0.000,35.098
21097,3.343,0.000,3.220,2.996,12.574,9.069,0.000,35.144
21122,3.343,0.000,3.220,2.996,12.574,9.069,0.000,35.099
21147,3.343,0.000,3.220,2.996,12.574,9.069,0.000,35.096
21172,3.343,0.000,3.220,2.996,12.574,9.069,0.000,35.095
21197,3.343,0.000,3.220,2.996,12.574,9.069,0.000,35.143
21222,3.343,0.000,3.220,2.996,12.574,9.069,0.000,35.111
21247,3.343,0.000,3.220,2.996,12.574,9.069,0.000,35.123
21272,3.343,0.000,3.220,2.996,12.574,9.069,0.000,35.151
21297,3.343,0.000,3.220,2.996,12.574,9.069,0.000,35.045
21322,3.343,0.000,3.220,2.996,12.574,9.069,0.000,35.090
21347,3.343,0.000,3.220,2.996,12.574,9.069,0.000,35.131
21372,3.343,0.000,3.220,2.996,12.574,9.069,0.000,35.108
21397,3.343,0.000,3.220,2.996,12.574,9.069,0.000,35.132
21422,3.343,0.000,3.220,2.996,12.574,9.069,0.000,35.091
21447,3.343,0.000,3.220,2.996,12.574,9.069,0.000,35.107
21472,3.344,0.000,3.220,2.996,12.574,9.069,0.000,35.113
21497,3.343,0.000,3.220,2.996,12.574,9.069,0.000,35.156
21522,3.343,0.000,3.220,2.996,12.574,9.069,0.000,35.140
21547,3.344,0.000,3.220,2.996,12.574,9.069,0.000,35.072
21572,3.343,0.000,3.220,2.996,12.574,9.069,0.000,35.073
21597,3.343,0.000,3.220,2.996,12.574,9.069,0.000,35.080
21622,3.343,0.000,3.220,2.996,12.574,9.069,0.000,35.116
21647,3.343,0.000,3.220,2.996,12.574,9.069,0.000,35.150
21672,3.343,0.000,3.220,2.996,12.574,9.069,0.000,35.093
21697,3.343,0.000,3.220,2.996,12.574,9.069,0.000,35.119
21722,3.343,0.000,3.220,2.996,12.574,9.069,0.000,35.072
21747,3.344,0.000,3.220,2.996,12.574,9.069,0.000,35.100
21772,3.343,0.000,3.220,2.996,12.574,9.069,0.000,35.092
21797,3.343,0.000,3.220,2.996,12.574,9.069,0.000,35.106
21822,3.343,0.000,3.220,2.996,12.574,9.069,0.000,35.089
21847,3.343,0.000,3.220,2.996,12.574,9.069,0.000,35.089
21872,3.343,0.000,3.220,2.996,12.574,9.069,0.000,35.117
21897,3.344,0.000,3.220,2.996,12.574,9.069,0.000,35.105
21922,3.343,0.000,3.220,2.996,12.574,9.069,0.000,35.077
21947,3.343,0.000,3.220,2.996,12.574,9.069,0.000,35.089
21972,3.343,0.000,3.220,2.996,12.574,9.069,0.000,35.097
21997,3.343,0.000,3.220,2.996,12.574,9.069,0.000,35.077
22022,3.343,0.000,3.220,2.996,12.574,9.069,0.000,35.113
22047,3.343,0.000,3.220,2.996,12.574,9.069,0.000,35.052
22072,3.343,0.000,3.220,2.996,12.574,9.069,0.000,35.134
22097,3.343,0.000,3.220,2.996,12.574,9.069,0.000,35.092
22122,3.343,0.000,3.220,2.996,12.574,9.069,0.000,35.100
22147,3.343,0.000,3.220,2.996,12.574,9.069,0.000,35.104
22172,3.343,0.000,3.220,2.996,12.574,9.069,0.000,35.088
22197,3.343,0.000,3.220,2.996,12.574,9.069,0.000,35.120
22222,3.343,0.000,3.220,2.996,12.574,9.069,0.000,35.116
22247,3.343,0.000,3.220,2.996,12.574,9.069,0.000,35.094
22272,3.343,0.000,3.220,2.996,12.574,9.069,0.000,35.130
22297,3.343,0.000,3.220,2.996,12.574,9.069,0.000,35.167
22322,3.343,0.000,3.220,2.996,12.574,9.069,0.000,35.125
22347,3.343,0.000,3.220,2.996,12.574,9.069,0.000,35.104
22372,3.343,0.000,3.220,2.996,12.574,9.069,0.000,35.104
22397,3.344,0.000,3.220,2.996,12.574,9.069,0.000,35.098
22422,3.343,0.000,3.220,2.996,12.574,9.069,0.000,35.113
22428,3.343,0.000,3.220,2.996,12.574,9.069,0.000,35.078