File: data/T35/2C/2.csv
time_s,voltage_v,current_a,chargecapacity_ah,dischargecapacity_ah,charge_energy_wh,discharge_energy_wh,voltagedot_v_per_s,temp_degc
1,3.294,0.000,0.000,0.000,0.000,0.000,0.000,34.657
26,3.294,0.000,0.000,0.000,0.000,0.000,0.000,34.603
51,3.294,0.000,0.000,0.000,0.000,0.000,0.000,34.647
76,3.294,0.000,0.000,0.000,0.000,0.000,0.000,34.671
101,3.294,0.000,0.000,0.000,0.000,0.000,0.000,34.684
126,3.294,0.000,0.000,0.000,0.000,0.000,0.000,34.684
151,3.294,0.000,0.000,0.000,0.000,0.000,0.000,34.619
176,3.294,0.000,0.000,0.000,0.000,0.000,0.000,34.680
201,3.294,0.000,0.000,0.000,0.000,0.000,0.000,34.656
226,3.294,0.000,0.000,0.000,0.000,0.000,0.000,34.654
251,3.294,0.000,0.000,0.000,0.000,0.000,0.000,34.663
276,3.293,0.000,0.000,0.000,0.000,0.000,0.000,34.652
301,3.294,0.000,0.000,0.000,0.000,0.000,0.000,34.683
326,3.294,0.000,0.000,0.000,0.000,0.000,0.000,34.666
351,3.294,0.000,0.000,0.000,0.000,0.000,0.000,34.685
376,3.294,0.000,0.000,0.000,0.000,0.000,0.000,34.662
401,3.294,0.000,0.000,0.000,0.000,0.000,0.000,34.663
426,3.294,0.000,0.000,0.000,0.000,0.000,0.000,34.675
451,3.294,0.000,0.000,0.000,0.000,0.000,0.000,34.652
476,3.294,0.000,0.000,0.000,0.000,0.000,0.000,34.693
501,3.294,0.000,0.000,0.000,0.000,0.000,0.000,34.692
526,3.294,0.000,0.000,0.000,0.000,0.000,0.000,34.695
551,3.294,0.000,0.000,0.000,0.000,0.000,0.000,34.709
576,3.294,0.000,0.000,0.000,0.000,0.000,0.000,34.658
601,3.294,0.000,0.000,0.000,0.000,0.000,0.000,34.683
626,3.294,0.000,0.000,0.000,0.000,0.000,0.000,34.678
651,3.294,0.000,0.000,0.000,0.000,0.000,0.000,34.663
676,3.294,0.000,0.000,0.000,0.000,0.000,0.000,34.684
701,3.294,0.000,0.000,0.000,0.000,0.000,-0.001,34.659
726,3.294,0.000,0.000,0.000,0.000,0.000,0.000,34.687
751,3.294,0.000,0.000,0.000,0.000,0.000,0.000,34.674
776,3.294,0.000,0.000,0.000,0.000,0.000,0.000,34.646
801,3.294,0.000,0.000,0.000,0.000,0.000,0.000,34.696
826,3.294,0.000,0.000,0.000,0.000,0.000,0.000,34.647
851,3.294,0.000,0.000,0.000,0.000,0.000,0.000,34.656
876,3.294,0.000,0.000,0.000,0.000,0.000,0.000,34.679
901,3.294,0.000,0.000,0.000,0.000,0.000,0.000,34.702
926,3.294,0.000,0.000,0.000,0.000,0.000,0.000,34.673
951,3.294,0.000,0.000,0.000,0.000,0.000,0.000,34.696
976,3.294,0.000,0.000,0.000,0.000,0.000,0.000,34.631
1001,3.294,0.000,0.000,0.000,0.000,0.000,0.000,34.657
1026,3.294,0.000,0.000,0.000,0.000,0.000,0.000,34.673
1051,3.294,0.000,0.000,0.000,0.000,0.000,0.000,34.679
1076,3.294,0.000,0.000,0.000,0.000,0.000,0.000,34.681
1101,3.294,0.000,0.000,0.000,0.000,0.000,0.000,34.669
1126,3.294,0.000,0.000,0.000,0.000,0.000,0.000,34.660
1151,3.294,0.000,0.000,0.000,0.000,0.000,0.000,34.688
1176,3.294,0.000,0.000,0.000,0.000,0.000,0.000,34.668
1201,3.294,0.000,0.000,0.000,0.000,0.000,0.000,34.670
1226,3.294,0.000,0.000,0.000,0.000,0.000,0.000,34.649
1251,3.294,0.000,0.000,0.000,0.000,0.000,0.000,34.689
1276,3.294,0.000,0.000,0.000,0.000,0.000,0.000,34.635
1301,3.294,0.000,0.000,0.000,0.000,0.000,0.000,34.670
1326,3.294,0.000,0.000,0.000,0.000,0.000,0.000,34.650
1351,3.294,0.000,0.000,0.000,0.000,0.000,0.000,34.642
1376,3.294,0.000,0.000,0.000,0.000,0.000,0.000,34.697
1401,3.294,0.000,0.000,0.000,0.000,0.000,0.000,34.661
1426,3.294,0.000,0.000,0.000,0.000,0.000,0.000,34.637
1451,3.294,0.000,0.000,0.000,0.000,0.000,0.000,34.620
1476,3.294,0.000,0.000,0.000,0.000,0.000,0.000,34.647
1501,3.294,0.000,0.000,0.000,0.000,0.000,0.000,34.607
1526,3.294,0.000,0.000,0.000,0.000,0.000,0.000,34.647
1551,3.294,0.000,0.000,0.000,0.000,0.000,0.000,34.642
1576,3.294,0.000,0.000,0.000,0.000,0.000,0.000,34.670
1601,3.294,0.000,0.000,0.000,0.000,0.000,0.000,34.672
1626,3.294,0.000,0.000,0.000,0.000,0.000,0.000,34.650
1651,3.294,0.000,0.000,0.000,0.000,0.000,0.000,34.677
1676,3.294,0.000,0.000,0.000,0.000,0.000,0.000,34.683
1701,3.294,0.000,0.000,0.000,0.000,0.000,0.000,34.657
1726,3.294,0.000,0.000,0.000,0.000,0.000,0.000,34.657
1751,3.294,0.000,0.000,0.000,0.000,0.000,0.000,34.648
1776,3.294,0.000,0.000,0.000,0.000,0.000,0.000,34.678
1801,3.294,0.000,0.000,0.000,0.000,0.000,0.000,34.642
1826,3.294,0.000,0.000,0.000,0.000,0.000,0.000,34.642
1851,3.294,0.000,0.000,0.000,0.000,0.000,0.000,34.673
1876,3.294,0.000,0.000,0.000,0.000,0.000,0.000,34.677
1901,3.294,0.000,0.000,0.000,0.000,0.000,0.000,34.686
1926,3.294,0.000,0.000,0.000,0.000,0.000,0.000,34.701
1951,3.294,0.000,0.000,0.000,0.000,0.000,0.000,34.633
1976,3.295,0.000,0.000,0.000,0.000,0.000,0.000,34.661
2001,3.294,0.000,0.000,0.000,0.000,0.000,0.000,34.658
2026,3.294,0.000,0.000,0.000,0.000,0.000,0.000,34.670
2051,3.294,0.000,0.000,0.000,0.000,0.000,0.000,34.648
2076,3.294,0.000,0.000,0.000,0.000,0.000,0.000,34.651
2101,3.294,0.000,0.000,0.000,0.000,0.000,0.000,34.655
2126,3.295,0.000,0.000,0.000,0.000,0.000,0.000,34.670
2151,3.295,0.000,0.000,0.000,0.000,0.000,0.000,34.681
2176,3.294,0.000,0.000,0.000,0.000,0.000,0.000,34.645
2201,3.294,0.000,0.000,0.000,0.000,0.000,0.000,34.633
2226,3.295,0.000,0.000,0.000,0.000,0.000,0.000,34.657
2251,3.295,0.000,0.000,0.000,0.000,0.000,0.000,34.674
2276,3.294,0.000,0.000,0.000,0.000,0.000,0.000,34.660
2301,3.295,0.000,0.000,0.000,0.000,0.000,0.000,34.679
2326,3.295,0.000,0.000,0.000,0.000,0.000,0.000,34.670
2351,3.295,0.000,0.000,0.000,0.000,0.000,0.000,34.666
2376,3.295,0.000,0.000,0.000,0.000,0.000,0.000,34.684
2401,3.295,0.000,0.000,0.000,0.000,0.000,0.000,34.668
2426,3.295,0.000,0.000,0.000,0.000,0.000,0.000,34.671
2451,3.294,0.000,0.000,0.000,0.000,0.000,0.000,34.677
2476,3.295,0.000,0.000,0.000,0.000,0.000,0.000,34.645
2501,3.295,0.000,0.000,0.000,0.000,0.000,0.000,34.636
2526,3.295,0.000,0.000,0.000,0.000,0.000,0.000,34.659
2551,3.295,0.000,0.000,0.000,0.000,0.000,0.000,34.660
2576,3.294,0.000,0.000,0.000,0.000,0.000,0.000,34.680
2601,3.295,0.000,0.000,0.000,0.000,0.000,0.000,34.672
2626,3.295,0.000,0.000,0.000,0.000,0.000,0.000,34.664
2651,3.295,0.000,0.000,0.000,0.000,0.000,0.000,34.668
2676,3.295,0.000,0.000,0.000,0.000,0.000,0.000,34.665
2701,3.295,0.000,0.000,0.000,0.000,0.000,0.000,34.671
2726,3.295,0.000,0.000,0.000,0.000,0.000,0.000,34.698
2751,3.295,0.000,0.000,0.000,0.000,0.000,0.000,34.671
2776,3.295,0.000,0.000,0.000,0.000,0.000,0.000,34.664
2801,3.295,0.000,0.000,0.000,0.000,0.000,0.000,34.671
2826,3.295,0.000,0.000,0.000,0.000,0.000,0.000,34.692
2851,3.295,0.000,0.000,0.000,0.000,0.000,0.000,34.649
2876,3.295,0.000,0.000,0.000,0.000,0.000,0.000,34.661
2901,3.295,0.000,0.000,0.000,0.000,0.000,0.000,34.682
2926,3.295,0.000,0.000,0.000,0.000,0.000,0.000,34.615
2951,3.295,0.000,0.000,0.000,0.000,0.000,0.000,34.642
2976,3.295,0.000,0.000,0.000,0.000,0.000,0.000,34.663
3001,3.295,0.000,0.000,0.000,0.000,0.000,0.000,34.659
3026,3.295,0.000,0.000,0.000,0.000,0.000,0.000,34.659
3051,3.295,0.000,0.000,0.000,0.000,0.000,0.000,34.703
3076,3.295,0.000,0.000,0.000,0.000,0.000,0.000,34.674
3101,3.295,0.000,0.000,0.000,0.000,0.000,0.000,34.687
3126,3.295,0.000,0.000,0.000,0.000,0.000,0.000,34.614
3151,3.295,0.000,0.000,0.000,0.000,0.000,0.000,34.653
3176,3.295,0.000,0.000,0.000,0.000,0.000,0.000,34.638
3201,3.295,0.000,0.000,0.000,0.000,0.000,0.000,34.623
3226,3.295,0.000,0.000,0.000,0.000,0.000,0.000,34.678
3251,3.295,0.000,0.000,0.000,0.000,0.000,0.000,34.653
3276,3.295,0.000,0.000,0.000,0.000,0.000,0.000,34.676
3301,3.295,0.000,0.000,0.000,0.000,0.000,0.000,34.652
3326,3.295,0.000,0.000,0.000,0.000,0.000,0.000,34.637
3351,3.295,0.000,0.000,0.000,0.000,0.000,0.000,34.681
3376,3.295,0.000,0.000,0.000,0.000,0.000,0.000,34.682
3401,3.295,0.000,0.000,0.000,0.000,0.000,0.000,34.672
3426,3.295,0.000,0.000,0.000,0.000,0.000,0.000,34.682
3451,3.295,0.000,0.000,0.000,0.000,0.000,0.000,34.646
3476,3.295,0.000,0.000,0.000,0.000,0.000,0.000,34.658
3501,3.295,0.000,0.000,0.000,0.000,0.000,0.000,34.683
3526,3.295,0.000,0.000,0.000,0.000,0.000,0.000,34.703
3551,3.295,0.000,0.000,0.000,0.000,0.000,0.000,34.681
3576,3.295,0.000,0.000,0.000,0.000,0.000,0.000,34.688
3600,3.295,0.000,0.000,0.000,0.000,0.000,0.000,34.590
3625,3.488,1.625,0.011,0.000,0.039,0.000,0.001,34.667
3650,3.499,1.625,0.023,0.000,0.079,0.000,0.000,34.730
3675,3.504,1.625,0.034,0.000,0.118,0.000,0.000,34.762
3700,3.507,1.625,0.045,0.000,0.158,0.000,0.000,34.831
3725,3.509,1.625,0.056,0.000,0.197,0.000,0.000,34.936
3750,3.512,1.625,0.068,0.000,0.237,0.000,0.000,34.979
3775,3.515,1.625,0.079,0.000,0.277,0.000,0.000,35.075
3800,3.518,1.625,0.090,0.000,0.316,0.000,0.000,35.101
3825,3.521,1.625,0.102,0.000,0.356,0.000,0.000,35.156
3850,3.523,1.625,0.113,0.000,0.396,0.000,0.000,35.210
3875,3.526,1.625,0.124,0.000,0.436,0.000,0.000,35.272
3900,3.529,1.625,0.135,0.000,0.475,0.000,0.000,35.346
3925,3.531,1.625,0.147,0.000,0.515,0.000,0.000,35.340
3950,3.534,1.625,0.158,0.000,0.555,0.000,0.000,35.343
3975,3.537,1.625,0.169,0.000,0.595,0.000,0.000,35.396
4000,3.539,1.625,0.181,0.000,0.635,0.000,0.000,35.433
4025,3.542,1.625,0.192,0.000,0.675,0.000,0.000,35.496
4050,3.545,1.625,0.203,0.000,0.715,0.000,0.000,35.505
4075,3.547,1.625,0.214,0.000,0.755,0.000,0.000,35.516
4100,3.550,1.625,0.226,0.000,0.795,0.000,0.000,35.544
4125,3.553,1.625,0.237,0.000,0.835,0.000,0.000,35.570
4150,3.555,1.625,0.248,0.000,0.875,0.000,0.000,35.599
4175,3.558,1.625,0.260,0.000,0.915,0.000,0.000,35.605
4200,3.561,1.625,0.271,0.000,0.956,0.000,0.000,35.623
4225,3.564,1.625,0.282,0.000,0.996,0.000,0.000,35.637
4250,3.566,1.625,0.293,0.000,1.036,0.000,0.000,35.648
4275,3.569,1.625,0.305,0.000,1.076,0.000,0.000,35.693
4300,3.572,1.625,0.316,0.000,1.117,0.000,0.001,35.654
4325,3.575,1.625,0.327,0.000,1.157,0.000,0.000,35.606
4350,3.578,1.625,0.339,0.000,1.197,0.000,0.000,35.681
4375,3.581,1.625,0.350,0.000,1.238,0.000,0.000,35.643
4400,3.584,1.625,0.361,0.000,1.278,0.000,0.000,35.639
4425,3.587,1.625,0.373,0.000,1.319,0.000,0.000,35.598
4450,3.590,1.625,0.384,0.000,1.359,0.000,0.000,35.609
4475,3.594,1.625,0.395,0.000,1.400,0.000,0.000,35.656
4500,3.597,1.625,0.406,0.000,1.440,0.000,0.000,35.632
4525,3.600,1.625,0.418,0.000,1.481,0.000,0.000,35.622
4550,3.604,1.625,0.429,0.000,1.521,0.000,0.000,35.598
4575,3.607,1.625,0.440,0.000,1.562,0.000,0.000,35.626
4600,3.610,1.625,0.452,0.000,1.603,0.000,0.000,35.604
4625,3.613,1.625,0.463,0.000,1.644,0.000,0.000,35.615
4650,3.615,1.625,0.474,0.000,1.684,0.000,0.000,35.625
4675,3.618,1.625,0.485,0.000,1.725,0.000,0.000,35.566
4700,3.621,1.625,0.497,0.000,1.766,0.000,0.000,35.559
4725,3.623,1.625,0.508,0.000,1.807,0.000,0.000,35.594
4750,3.626,1.625,0.519,0.000,1.848,0.000,0.000,35.586
4775,3.628,1.625,0.531,0.000,1.889,0.000,0.000,35.536
4800,3.631,1.625,0.542,0.000,1.930,0.000,0.000,35.542
4825,3.633,1.625,0.553,0.000,1.971,0.000,0.000,35.551
4850,3.635,1.625,0.564,0.000,2.012,0.000,0.000,35.541
4875,3.637,1.625,0.576,0.000,2.053,0.000,0.000,35.547
4900,3.639,1.625,0.587,0.000,2.094,0.000,0.000,35.554
4925,3.641,1.625,0.598,0.000,2.135,0.000,0.000,35.549
4950,3.644,1.625,0.610,0.000,2.176,0.000,0.000,35.543
4975,3.646,1.625,0.621,0.000,2.217,0.000,0.000,35.537
5000,3.648,1.625,0.632,0.000,2.258,0.000,0.000,35.502
5025,3.650,1.625,0.643,0.000,2.300,0.000,0.000,35.519
5050,3.652,1.625,0.655,0.000,2.341,0.000,0.000,35.507
5075,3.655,1.625,0.666,0.000,2.382,0.000,0.000,35.519
5100,3.657,1.625,0.677,0.000,2.423,0.000,0.000,35.514
5125,3.659,1.625,0.689,0.000,2.465,0.000,0.000,35.530
5150,3.661,1.625,0.700,0.000,2.506,0.000,0.000,35.521
5175,3.664,1.625,0.711,0.000,2.547,0.000,0.000,35.546
5200,3.666,1.625,0.722,0.000,2.589,0.000,0.000,35.510
5225,3.668,1.625,0.734,0.000,2.630,0.000,0.000,35.548
5250,3.670,1.625,0.745,0.000,2.672,0.000,0.000,35.565
5275,3.673,1.625,0.756,0.000,2.713,0.000,0.000,35.551
5300,3.675,1.625,0.768,0.000,2.754,0.000,0.000,35.583
5325,3.677,1.625,0.779,0.000,2.796,0.000,0.000,35.577
5350,3.680,1.625,0.790,0.000,2.837,0.000,0.000,35.564
5375,3.682,1.625,0.801,0.000,2.879,0.000,0.000,35.636
5400,3.684,1.625,0.813,0.000,2.921,0.000,0.000,35.575
5425,3.687,1.625,0.824,0.000,2.962,0.000,0.000,35.598
5450,3.689,1.625,0.835,0.000,3.004,0.000,0.000,35.602
5475,3.691,1.625,0.847,0.000,3.045,0.000,0.000,35.619
5500,3.694,1.625,0.858,0.000,3.087,0.000,0.000,35.607
5525,3.696,1.625,0.869,0.000,3.129,0.000,0.000,35.632
5550,3.698,1.625,0.880,0.000,3.171,0.000,0.000,35.637
5575,3.701,1.625,0.892,0.000,3.212,0.000,0.000,35.665
5600,3.703,1.625,0.903,0.000,3.254,0.000,0.000,35.650
5625,3.705,1.625,0.914,0.000,3.296,0.000,0.000,35.657
5650,3.708,1.625,0.926,0.000,3.338,0.000,0.000,35.709
5675,3.710,1.625,0.937,0.000,3.380,0.000,0.000,35.711
5700,3.712,1.625,0.948,0.000,3.422,0.000,0.000,35.672
5725,3.715,1.625,0.959,0.000,3.463,0.000,0.000,35.688
5750,3.717,1.625,0.971,0.000,3.505,0.000,0.000,35.654
5775,3.719,1.625,0.982,0.000,3.547,0.000,0.000,35.691
5800,3.721,1.625,0.993,0.000,3.589,0.000,0.000,35.717
5825,3.724,1.625,1.005,0.000,3.631,0.000,0.000,35.734
5850,3.726,1.625,1.016,0.000,3.673,0.000,0.000,35.711
5875,3.728,1.625,1.027,0.000,3.715,0.000,0.000,35.771
5900,3.731,1.625,1.038,0.000,3.758,0.000,0.000,35.748
5925,3.733,1.625,1.050,0.000,3.800,0.000,0.000,35.779
5950,3.735,1.625,1.061,0.000,3.842,0.000,0.000,35.764
5975,3.737,1.625,1.072,0.000,3.884,0.000,0.000,35.748
6000,3.739,1.625,1.084,0.000,3.926,0.000,0.000,35.780
6025,3.741,1.625,1.095,0.000,3.968,0.000,0.000,35.814
6050,3.743,1.625,1.106,0.000,4.011,0.000,0.000,35.793
6075,3.745,1.625,1.117,0.000,4.053,0.000,0.000,35.869
6100,3.748,1.625,1.129,0.000,4.095,0.000,0.000,35.808
6125,3.750,1.625,1.140,0.000,4.138,0.000,0.000,35.839
6150,3.752,1.625,1.151,0.000,4.180,0.000,0.000,35.800
6175,3.754,1.625,1.163,0.000,4.222,0.000,0.000,35.854
6200,3.756,1.625,1.174,0.000,4.265,0.000,0.000,35.808
6225,3.758,1.625,1.185,0.000,4.307,0.000,0.000,35.850
6250,3.760,1.625,1.197,0.000,4.349,0.000,0.000,35.871
6275,3.762,1.625,1.208,0.000,4.392,0.000,0.000,35.809
6300,3.764,1.625,1.219,0.000,4.434,0.000,0.000,35.848
6325,3.766,1.625,1.230,0.000,4.477,0.000,0.000,35.786
6350,3.768,1.625,1.242,0.000,4.519,0.000,0.000,35.863
6375,3.770,1.625,1.253,0.000,4.562,0.000,0.000,35.830
6400,3.772,1.625,1.264,0.000,4.605,0.000,0.000,35.859
6425,3.775,1.625,1.276,0.000,4.647,0.000,0.000,35.844
6450,3.777,1.625,1.287,0.000,4.690,0.000,0.000,35.828
6475,3.779,1.625,1.298,0.000,4.732,0.000,0.000,35.836
6500,3.781,1.625,1.309,0.000,4.775,0.000,0.000,35.844
6525,3.783,1.625,1.321,0.000,4.818,0.000,0.000,35.854
6550,3.785,1.625,1.332,0.000,4.860,0.000,0.000,35.864
6575,3.788,1.625,1.343,0.000,4.903,0.000,0.000,35.883
6600,3.790,1.625,1.355,0.000,4.946,0.000,0.000,35.868
6625,3.792,1.625,1.366,0.000,4.989,0.000,0.000,35.886
6650,3.795,1.625,1.377,0.000,5.032,0.000,0.000,35.868
6675,3.797,1.625,1.388,0.000,5.074,0.000,0.000,35.849
6700,3.799,1.625,1.400,0.000,5.117,0.000,0.000,35.869
6725,3.802,1.625,1.411,0.000,5.160,0.000,0.000,35.835
6750,3.804,1.625,1.422,0.000,5.203,0.000,0.000,35.825
6775,3.807,1.625,1.434,0.000,5.246,0.000,0.000,35.829
6800,3.809,1.625,1.445,0.000,5.289,0.000,0.000,35.853
6825,3.811,1.625,1.456,0.000,5.332,0.000,0.000,35.837
6850,3.814,1.625,1.467,0.000,5.375,0.000,0.000,35.871
6875,3.817,1.625,1.479,0.000,5.418,0.000,0.000,35.901
6900,3.819,1.625,1.490,0.000,5.461,0.000,0.000,35.884
6925,3.822,1.625,1.501,0.000,5.504,0.000,0.000,35.857
6950,3.825,1.625,1.513,0.000,5.548,0.000,0.000,35.863
6975,3.827,1.625,1.524,0.000,5.591,0.000,0.000,35.893
7000,3.830,1.625,1.535,0.000,5.634,0.000,0.000,35.890
7025,3.833,1.625,1.546,0.000,5.677,0.000,0.000,35.867
7050,3.836,1.625,1.558,0.000,5.720,0.000,0.000,35.860
7075,3.838,1.625,1.569,0.000,5.764,0.000,0.000,35.837
7100,3.841,1.625,1.580,0.000,5.807,0.000,0.000,35.891
7125,3.844,1.625,1.592,0.000,5.851,0.000,0.000,35.899
7150,3.847,1.625,1.603,0.000,5.894,0.000,0.000,35.869
7175,3.850,1.625,1.614,0.000,5.937,0.000,0.000,35.831
7200,3.853,1.625,1.625,0.000,5.981,0.000,0.000,35.892
7225,3.856,1.625,1.637,0.000,6.024,0.000,0.000,35.888
7250,3.859,1.625,1.648,0.000,6.068,0.000,0.000,35.929
7275,3.862,1.625,1.659,0.000,6.111,0.000,0.000,35.836
7300,3.865,1.625,1.671,0.000,6.155,0.000,0.000,35.861
7325,3.868,1.625,1.682,0.000,6.199,0.000,0.000,35.887
7350,3.871,1.625,1.693,0.000,6.242,0.000,0.000,35.864
7375,3.874,1.625,1.704,0.000,6.286,0.000,0.000,35.858
7400,3.877,1.625,1.716,0.000,6.330,0.000,0.000,35.845
7425,3.880,1.625,1.727,0.000,6.374,0.000,0.000,35.883
7450,3.883,1.625,1.738,0.000,6.417,0.000,0.000,35.884
7475,3.886,1.625,1.750,0.000,6.461,0.000,0.000,35.857
7500,3.890,1.625,1.761,0.000,6.505,0.000,0.000,35.842
7525,3.893,1.625,1.772,0.000,6.549,0.000,0.000,35.863
7550,3.896,1.625,1.783,0.000,6.593,0.000,0.000,35.843
7575,3.899,1.625,1.795,0.000,6.637,0.000,0.000,35.864
7600,3.902,1.625,1.806,0.000,6.681,0.000,0.000,35.901
7625,3.906,1.625,1.817,0.000,6.725,0.000,0.000,35.886
7650,3.909,1.625,1.829,0.000,6.769,0.000,0.000,35.868
7675,3.912,1.625,1.840,0.000,6.813,0.000,0.000,35.868
7700,3.915,1.625,1.851,0.000,6.858,0.000,0.000,35.900
7725,3.918,1.625,1.862,0.000,6.902,0.000,0.000,35.854
7750,3.922,1.625,1.874,0.000,6.946,0.000,0.000,35.860
7775,3.925,1.625,1.885,0.000,6.990,0.000,0.000,35.912
7800,3.928,1.625,1.896,0.000,7.035,0.000,0.000,35.873
7825,3.931,1.625,1.908,0.000,7.079,0.000,0.000,35.871
7850,3.934,1.625,1.919,0.000,7.123,0.000,0.000,35.814
7875,3.938,1.625,1.930,0.000,7.168,0.000,0.000,35.868
7900,3.941,1.625,1.942,0.000,7.212,0.000,0.000,35.819
7925,3.944,1.625,1.953,0.000,7.257,0.000,0.000,35.846
7950,3.948,1.625,1.964,0.000,7.301,0.000,0.000,35.860
7975,3.951,1.625,1.975,0.000,7.346,0.000,0.000,35.860
8000,3.954,1.625,1.987,0.000,7.391,0.000,0.000,35.817
8025,3.957,1.625,1.998,0.000,7.435,0.000,0.000,35.782
8050,3.961,1.625,2.009,0.000,7.480,0.000,0.000,35.815
8075,3.964,1.625,2.021,0.000,7.525,0.000,0.000,35.804
8100,3.967,1.625,2.032,0.000,7.569,0.000,0.000,35.835
8125,3.970,1.625,2.043,0.000,7.614,0.000,0.000,35.858
8150,3.973,1.625,2.054,0.000,7.659,0.000,0.000,35.789
8175,3.977,1.625,2.066,0.000,7.704,0.000,0.000,35.822
8200,3.980,1.625,2.077,0.000,7.749,0.000,0.000,35.788
8225,3.983,1.625,2.088,0.000,7.794,0.000,0.000,35.829
8250,3.986,1.625,2.100,0.000,7.839,0.000,0.000,35.759
8275,3.989,1.625,2.111,0.000,7.884,0.000,0.000,35.766
8300,3.992,1.625,2.122,0.000,7.929,0.000,0.000,35.816
8325,3.995,1.625,2.133,0.000,7.974,0.000,0.000,35.785
8350,3.999,1.625,2.145,0.000,8.019,0.000,0.000,35.813
8375,4.002,1.625,2.156,0.000,8.064,0.000,0.000,35.808
8400,4.005,1.625,2.167,0.000,8.109,0.000,0.000,35.781
8425,4.008,1.625,2.179,0.000,8.155,0.000,0.000,35.787
8450,4.011,1.625,2.190,0.000,8.200,0.000,0.000,35.782
8475,4.015,1.625,2.201,0.000,8.245,0.000,0.000,35.840
8500,4.018,1.625,2.212,0.000,8.290,0.000,0.000,35.774
8525,4.021,1.625,2.224,0.000,8.336,0.000,0.000,35.790
8550,4.024,1.625,2.235,0.000,8.381,0.000,0.000,35.778
8575,4.027,1.625,2.246,0.000,8.427,0.000,0.000,35.738
8600,4.030,1.625,2.258,0.000,8.472,0.000,0.000,35.819
8625,4.034,1.625,2.269,0.000,8.518,0.000,0.000,35.799
8650,4.037,1.625,2.280,0.000,8.563,0.000,0.000,35.801
8675,4.040,1.625,2.291,0.000,8.609,0.000,0.000,35.796
8700,4.043,1.625,2.303,0.000,8.654,0.000,0.000,35.777
8725,4.047,1.625,2.314,0.000,8.700,0.000,0.000,35.773
8750,4.050,1.625,2.325,0.000,8.746,0.000,0.000,35.841
8775,4.053,1.625,2.337,0.000,8.791,0.000,0.000,35.760
8800,4.056,1.625,2.348,0.000,8.837,0.000,0.000,35.794
8825,4.060,1.625,2.359,0.000,8.883,0.000,0.000,35.753
8850,4.063,1.625,2.370,0.000,8.929,0.000,0.000,35.754
8875,4.067,1.625,2.382,0.000,8.975,0.000,0.000,35.793
8900,4.070,1.625,2.393,0.000,9.021,0.000,0.000,35.780
8925,4.074,1.625,2.404,0.000,9.067,0.000,0.000,35.798
8950,4.077,1.625,2.416,0.000,9.113,0.000,0.000,35.773
8975,4.081,1.625,2.427,0.000,9.159,0.000,0.000,35.802
9000,4.084,1.625,2.438,0.000,9.205,0.000,0.000,35.793
9025,4.088,1.625,2.449,0.000,9.251,0.000,0.000,35.808
9050,4.092,1.625,2.461,0.000,9.297,0.000,0.000,35.800
9075,4.096,1.625,2.472,0.000,9.343,0.000,0.000,35.849
9100,4.100,1.625,2.483,0.000,9.390,0.000,0.000,35.808
9125,4.104,1.625,2.495,0.000,9.436,0.000,0.000,35.864
9150,4.108,1.625,2.506,0.000,9.482,0.000,0.000,35.830
9175,4.111,1.625,2.517,0.000,9.529,0.000,0.000,35.847
9200,4.116,1.625,2.528,0.000,9.575,0.000,0.000,35.867
9225,4.120,1.625,2.540,0.000,9.621,0.000,0.000,35.824
9250,4.124,1.625,2.551,0.000,9.668,0.000,0.000,35.837
9275,4.128,1.625,2.562,0.000,9.714,0.000,0.000,35.864
9300,4.132,1.625,2.574,0.000,9.761,0.000,0.000,35.839
9325,4.137,1.625,2.585,0.000,9.808,0.000,0.000,35.901
9350,4.141,1.625,2.596,0.000,9.854,0.000,0.000,35.917
9375,4.145,1.625,2.607,0.000,9.901,0.000,0.000,35.865
9400,4.150,1.625,2.619,0.000,9.948,0.000,0.000,35.889
9425,4.154,1.625,2.630,0.000,9.995,0.000,0.000,35.892
9450,4.159,1.625,2.641,0.000,10.042,0.000,0.000,35.934
9475,4.163,1.625,2.653,0.000,10.089,0.000,0.000,35.891
9500,4.168,1.625,2.664,0.000,10.136,0.000,0.000,35.895
9525,4.172,1.625,2.675,0.000,10.183,0.000,0.000,35.955
9550,4.177,1.625,2.686,0.000,10.230,0.000,0.000,35.945
9575,4.182,1.625,2.698,0.000,10.277,0.000,0.000,35.975
9600,4.186,1.625,2.709,0.000,10.324,0.000,0.000,35.936
9625,4.191,1.625,2.720,0.000,10.372,0.000,0.000,35.974
9650,4.196,1.625,2.732,0.000,10.419,0.000,0.000,35.919
9675,4.200,1.624,2.743,0.000,10.466,0.000,0.000,35.950
9700,4.200,1.555,2.754,0.000,10.512,0.000,0.000,35.923
9725,4.200,1.503,2.764,0.000,10.557,0.000,0.000,35.931
9750,4.200,1.457,2.775,0.000,10.600,0.000,0.000,35.949
9775,4.200,1.415,2.785,0.000,10.642,0.000,0.000,35.932
9800,4.200,1.377,2.794,0.000,10.682,0.000,0.000,35.900
9825,4.200,1.341,2.804,0.000,10.722,0.000,0.000,35.901
9850,4.200,1.307,2.813,0.000,10.761,0.000,0.000,35.878
9875,4.200,1.274,2.822,0.000,10.798,0.000,0.000,35.877
9900,4.200,1.244,2.831,0.000,10.835,0.000,0.000,35.864
9925,4.200,1.213,2.839,0.000,10.871,0.000,0.000,35.814
9950,4.200,1.184,2.848,0.000,10.906,0.000,0.000,35.813
9975,4.200,1.157,2.856,0.000,10.940,0.000,0.000,35.800
10000,4.200,1.131,2.864,0.000,10.973,0.000,0.000,35.759
10025,4.200,1.104,2.871,0.000,11.006,0.000,0.000,35.759
10050,4.200,1.082,2.879,0.000,11.038,0.000,0.000,35.692
10075,4.200,1.055,2.886,0.000,11.069,0.000,0.000,35.681
10100,4.200,1.034,2.894,0.000,11.099,0.000,0.000,35.644
10125,4.200,1.011,2.901,0.000,11.129,0.000,0.000,35.673
10150,4.200,0.991,2.908,0.000,11.158,0.000,0.000,35.569
10175,4.200,0.970,2.914,0.000,11.187,0.000,0.000,35.584
10200,4.200,0.951,2.921,0.000,11.215,0.000,0.000,35.487
10225,4.200,0.931,2.928,0.000,11.242,0.000,0.000,35.550
10250,4.200,0.913,2.934,0.000,11.269,0.000,0.000,35.499
10275,4.200,0.894,2.940,0.000,11.296,0.000,0.000,35.506
10300,4.200,0.877,2.946,0.000,11.321,0.000,0.000,35.464
10325,4.200,0.859,2.953,0.000,11.347,0.000,0.000,35.441
10350,4.200,0.843,2.958,0.000,11.372,0.000,0.000,35.429
10375,4.200,0.826,2.964,0.000,11.396,0.000,0.000,35.403
10400,4.200,0.810,2.970,0.000,11.420,0.000,0.000,35.360
10425,4.200,0.794,2.975,0.000,11.443,0.000,0.000,35.367
10450,4.200,0.778,2.981,0.000,11.466,0.000,0.000,35.392
10475,4.200,0.763,2.986,0.000,11.488,0.000,0.000,35.335
10500,4.200,0.748,2.992,0.000,11.510,0.000,0.000,35.283
10525,4.200,0.733,2.997,0.000,11.532,0.000,0.000,35.340
10550,4.200,0.719,3.002,0.000,11.553,0.000,0.000,35.270
10575,4.200,0.705,3.007,0.000,11.574,0.000,0.000,35.301
10600,4.200,0.690,3.011,0.000,11.594,0.000,0.000,35.255
10625,4.200,0.677,3.016,0.000,11.614,0.000,0.000,35.256
10650,4.200,0.662,3.021,0.000,11.634,0.000,0.000,35.214
10675,4.200,0.649,3.025,0.000,11.653,0.000,0.000,35.184
10700,4.200,0.636,3.030,0.000,11.672,0.000,0.000,35.228
10725,4.200,0.622,3.034,0.000,11.690,0.000,0.000,35.212
10750,4.200,0.610,3.039,0.000,11.708,0.000,0.000,35.170
10775,4.200,0.598,3.043,0.000,11.726,0.000,0.000,35.176
10800,4.200,0.584,3.047,0.000,11.743,0.000,0.000,35.160
10825,4.200,0.573,3.051,0.000,11.760,0.000,0.000,35.124
10850,4.200,0.560,3.055,0.000,11.776,0.000,0.000,35.097
10875,4.200,0.548,3.059,0.000,11.792,0.000,0.000,35.065
10900,4.200,0.536,3.062,0.000,11.808,0.000,0.000,35.101
10925,4.200,0.525,3.066,0.000,11.824,0.000,0.000,35.094
10950,4.200,0.514,3.070,0.000,11.839,0.000,0.000,35.062
10975,4.200,0.502,3.073,0.000,11.854,0.000,0.000,35.071
11000,4.200,0.491,3.077,0.000,11.868,0.000,0.000,35.038
11025,4.200,0.480,3.080,0.000,11.882,0.000,0.000,35.018
11050,4.200,0.468,3.083,0.000,11.896,0.000,0.000,35.041
11075,4.200,0.458,3.087,0.000,11.910,0.000,0.000,35.037
11100,4.200,0.448,3.090,0.000,11.923,0.000,0.000,35.007
11125,4.200,0.437,3.093,0.000,11.936,0.000,0.000,34.979
11150,4.200,0.427,3.096,0.000,11.948,0.000,0.000,34.967
11175,4.200,0.418,3.099,0.000,11.961,0.000,0.000,34.949
11200,4.200,0.408,3.102,0.000,11.973,0.000,0.000,35.005
11225,4.200,0.398,3.104,0.000,11.984,0.000,0.000,34.942
11250,4.200,0.389,3.107,0.000,11.996,0.000,0.000,34.952
11275,4.200,0.379,3.110,0.000,12.007,0.000,0.000,34.942
11300,4.200,0.370,3.112,0.000,12.018,0.000,0.000,34.920
11325,4.200,0.361,3.115,0.000,12.029,0.000,0.000,34.968
11350,4.200,0.352,3.117,0.000,12.039,0.000,0.000,34.943
11375,4.200,0.344,3.120,0.000,12.049,0.000,0.000,34.904
11400,4.200,0.335,3.122,0.000,12.059,0.000,0.000,34.931
11425,4.200,0.326,3.124,0.000,12.069,0.000,0.000,34.882
11450,4.200,0.318,3.127,0.000,12.078,0.000,0.000,34.874
11475,4.200,0.311,3.129,0.000,12.087,0.000,0.000,34.885
11500,4.200,0.303,3.131,0.000,12.096,0.000,0.000,34.894
11525,4.200,0.296,3.133,0.000,12.105,0.000,0.000,34.872
11550,4.200,0.288,3.135,0.000,12.113,0.000,0.000,34.874
11575,4.200,0.281,3.137,0.000,12.122,0.000,0.000,34.885
11600,4.200,0.274,3.139,0.000,12.130,0.000,0.000,34.829
11625,4.200,0.267,3.141,0.000,12.138,0.000,0.000,34.876
11650,4.200,0.260,3.143,0.000,12.145,0.000,0.000,34.866
11675,4.200,0.254,3.144,0.000,12.153,0.000,0.000,34.789
11700,4.200,0.247,3.146,0.000,12.160,0.000,0.000,34.836
11725,4.200,0.241,3.148,0.000,12.167,0.000,0.000,34.806
11750,4.200,0.235,3.150,0.000,12.174,0.000,0.000,34.831
11775,4.200,0.229,3.151,0.000,12.181,0.000,0.000,34.791
11800,4.200,0.222,3.153,0.000,12.188,0.000,0.000,34.827
11825,4.200,0.217,3.154,0.000,12.194,0.000,0.000,34.812
11850,4.200,0.211,3.156,0.000,12.200,0.000,0.000,34.830
11875,4.200,0.206,3.157,0.000,12.206,0.000,0.000,34.802
11900,4.200,0.201,3.159,0.000,12.212,0.000,0.000,34.762
11925,4.200,0.196,3.160,0.000,12.218,0.000,0.000,34.799
11950,4.200,0.190,3.161,0.000,12.224,0.000,0.000,34.832
11975,4.200,0.186,3.163,0.000,12.229,0.000,0.000,34.820
12000,4.200,0.181,3.164,0.000,12.235,0.000,0.000,34.766
12025,4.200,0.177,3.165,0.000,12.240,0.000,0.000,34.752
12050,4.200,0.172,3.166,0.000,12.245,0.000,0.000,34.780
12075,4.200,0.168,3.168,0.000,12.250,0.000,0.000,34.751
12100,4.200,0.163,3.169,0.000,12.255,0.000,0.000,34.794
12125,4.200,0.160,3.170,0.000,12.259,0.000,0.000,34.768
12150,4.200,0.155,3.171,0.000,12.264,0.000,0.000,34.737
12175,4.200,0.151,3.172,0.000,12.268,0.000,0.000,34.744
12200,4.200,0.148,3.173,0.000,12.273,0.000,0.000,34.799
12225,4.200,0.144,3.174,0.000,12.277,0.000,0.000,34.752
12250,4.200,0.140,3.175,0.000,12.281,0.000,0.000,34.787
12275,4.200,0.137,3.176,0.000,12.285,0.000,0.000,34.728
12300,4.200,0.134,3.177,0.000,12.289,0.000,0.000,34.747
12325,4.200,0.130,3.178,0.000,12.293,0.000,0.000,34.759
12350,4.200,0.127,3.179,0.000,12.297,0.000,0.000,34.775
12375,4.200,0.124,3.180,0.000,12.300,0.000,0.000,34.730
12400,4.200,0.120,3.180,0.000,12.304,0.000,0.000,34.741
12425,4.200,0.117,3.181,0.000,12.307,0.000,0.000,34.702
12450,4.200,0.115,3.182,0.000,12.311,0.000,0.000,34.754
12475,4.200,0.112,3.183,0.000,12.314,0.000,0.000,34.765
12500,4.200,0.109,3.184,0.000,12.317,0.000,0.000,34.747
12525,4.200,0.107,3.184,0.000,12.320,0.000,0.000,34.726
12550,4.200,0.104,3.185,0.000,12.323,0.000,0.000,34.748
12575,4.200,0.101,3.186,0.000,12.326,0.000,0.000,34.699
12600,4.200,0.099,3.186,0.000,12.329,0.000,0.000,34.715
12625,4.200,0.097,3.187,0.000,12.332,0.000,0.000,34.689
12650,4.200,0.095,3.188,0.000,12.335,0.000,0.000,34.745
12675,4.200,0.092,3.188,0.000,12.338,0.000,0.000,34.723
12700,4.200,0.090,3.189,0.000,12.340,0.000,0.000,34.726
12725,4.200,0.088,3.190,0.000,12.343,0.000,0.000,34.738
12750,4.200,0.085,3.190,0.000,12.345,0.000,0.000,34.704
12775,4.200,0.083,3.191,0.000,12.348,0.000,0.000,34.708
12800,4.200,0.082,3.191,0.000,12.350,0.000,0.000,34.693
12825,4.200,0.080,3.192,0.000,12.353,0.000,0.000,34.706
12850,4.200,0.078,3.193,0.000,12.355,0.000,0.000,34.670
12875,4.200,0.076,3.193,0.000,12.357,0.000,0.000,34.739
12900,4.200,0.075,3.194,0.000,12.359,0.000,0.000,34.722
12925,4.200,0.072,3.194,0.000,12.362,0.000,0.000,34.719
12950,4.200,0.071,3.195,0.000,12.364,0.000,0.000,34.720
12975,4.200,0.069,3.195,0.000,12.366,0.000,0.000,34.708
13000,4.200,0.068,3.196,0.000,12.368,0.000,0.000,34.687
13025,4.200,0.066,3.196,0.000,12.370,0.000,0.000,34.699
13050,4.195,0.000,3.196,0.000,12.370,0.000,0.000,34.715
13075,4.194,0.000,3.196,0.000,12.370,0.000,0.000,34.686
13100,4.194,0.000,3.196,0.000,12.370,0.000,0.000,34.691
13125,4.193,0.000,3.196,0.000,12.370,0.000,0.000,34.717
13150,4.193,0.000,3.196,0.000,12.370,0.000,0.000,34.674
13175,4.192,0.000,3.196,0.000,12.370,0.000,0.000,34.679
13200,4.192,0.000,3.196,0.000,12.370,0.000,0.000,34.664
13225,4.192,0.000,3.196,0.000,12.370,0.000,0.000,34.689
13250,4.191,0.000,3.196,0.000,12.370,0.000,0.000,34.654
13275,4.191,0.000,3.196,0.000,12.370,0.000,0.000,34.689
13300,4.191,0.000,3.196,0.000,12.370,0.000,0.000,34.659
13325,4.191,0.000,3.196,0.000,12.370,0.000,0.000,34.690
13350,4.191,0.000,3.196,0.000,12.370,0.000,0.000,34.681
13375,4.190,0.000,3.196,0.000,12.370,0.000,0.000,34.658
13400,4.190,0.000,3.196,0.000,12.370,0.000,0.000,34.683
13425,4.190,0.000,3.196,0.000,12.370,0.000,0.000,34.686
13450,4.190,0.000,3.196,0.000,12.370,0.000,0.000,34.691
13475,4.190,0.000,3.196,0.000,12.370,0.000,0.000,34.647
13500,4.189,0.000,3.196,0.000,12.370,0.000,0.000,34.678
13525,4.189,0.000,3.196,0.000,12.370,0.000,0.000,34.684
13550,4.189,0.000,3.196,0.000,12.370,0.000,0.000,34.710
13575,4.189,0.000,3.196,0.000,12.370,0.000,0.000,34.712
13600,4.189,0.000,3.196,0.000,12.370,0.000,0.000,34.678
13625,4.189,0.000,3.196,0.000,12.370,0.000,0.000,34.674
13650,4.189,0.000,3.196,0.000,12.370,0.000,0.000,34.695
13675,4.188,0.000,3.196,0.000,12.370,0.000,0.000,34.675
13700,4.188,0.000,3.196,0.000,12.370,0.000,0.000,34.695
13725,4.188,0.000,3.196,0.000,12.370,0.000,0.000,34.683
13750,4.188,0.000,3.196,0.000,12.370,0.000,0.000,34.660
13775,4.188,0.000,3.196,0.000,12.370,0.000,0.000,34.631
13800,4.188,0.000,3.196,0.000,12.370,0.000,0.000,34.648
13825,4.188,0.000,3.196,0.000,12.370,0.000,0.000,34.683
13850,4.188,0.000,3.196,0.000,12.370,0.000,0.000,34.644
13875,4.188,0.000,3.196,0.000,12.370,0.000,0.000,34.673
13900,4.187,0.000,3.196,0.000,12.370,0.000,0.000,34.706
13925,4.188,0.000,3.196,0.000,12.370,0.000,0.000,34.682
13950,4.187,0.000,3.196,0.000,12.370,0.000,0.000,34.718
13975,4.187,0.000,3.196,0.000,12.370,0.000,0.000,34.707
14000,4.187,0.000,3.196,0.000,12.370,0.000,0.000,34.686
14025,4.187,0.000,3.196,0.000,12.370,0.000,0.000,34.693
14050,4.187,0.000,3.196,0.000,12.370,0.000,0.000,34.691
14075,4.187,0.000,3.196,0.000,12.370,0.000,0.000,34.668
14100,4.187,0.000,3.196,0.000,12.370,0.000,0.000,34.675
14125,4.187,0.000,3.196,0.000,12.370,0.000,0.000,34.672
14150,4.186,0.000,3.196,0.000,12.370,0.000,0.000,34.706
14175,4.186,0.000,3.196,0.000,12.370,0.000,0.000,34.673
14200,4.186,0.000,3.196,0.000,12.370,0.000,0.000,34.696
14225,4.186,0.000,3.196,0.000,12.370,0.000,0.000,34.632
14250,4.186,0.000,3.196,0.000,12.370,0.000,0.000,34.657
14275,4.186,0.000,3.196,0.000,12.370,0.000,0.000,34.695
14300,4.186,0.000,3.196,0.000,12.370,0.000,0.000,34.674
14325,4.186,0.000,3.196,0.000,12.370,0.000,0.000,34.661
14350,4.186,0.000,3.196,0.000,12.370,0.000,0.000,34.665
14375,4.186,0.000,3.196,0.000,12.370,0.000,0.000,34.697
14400,4.186,0.000,3.196,0.000,12.370,0.000,0.000,34.664
14425,4.185,0.000,3.196,0.000,12.370,0.000,0.000,34.664
14450,4.186,0.000,3.196,0.000,12.370,0.000,0.000,34.664
14475,4.185,0.000,3.196,0.000,12.370,0.000,0.000,34.643
14500,4.186,0.000,3.196,0.000,12.370,0.000,0.000,34.663
14525,4.185,0.000,3.196,0.000,12.370,0.000,0.000,34.672
14550,4.185,0.000,3.196,0.000,12.370,0.000,0.000,34.642
14575,4.185,0.000,3.196,0.000,12.370,0.000,0.000,34.651
14600,4.185,0.000,3.196,0.000,12.370,0.000,0.000,34.708
14625,4.185,0.000,3.196,0.000,12.370,0.000,0.000,34.640
14650,4.185,0.000,3.196,0.000,12.370,0.000,0.000,34.647
14675,4.185,0.000,3.196,0.000,12.370,0.000,0.000,34.638
14700,4.185,0.000,3.196,0.000,12.370,0.000,0.000,34.653
14725,4.185,0.000,3.196,0.000,12.370,0.000,0.000,34.694
14750,4.185,0.000,3.196,0.000,12.370,0.000,0.000,34.636
14775,4.185,0.000,3.196,0.000,12.370,0.000,0.000,34.673
14800,4.185,0.000,3.196,0.000,12.370,0.000,0.000,34.686
14825,4.185,0.000,3.196,0.000,12.370,0.000,0.000,34.661
14850,4.185,0.000,3.196,0.000,12.370,0.000,0.000,34.679
14875,4.185,0.000,3.196,0.000,12.370,0.000,0.000,34.628
14900,4.184,0.000,3.196,0.000,12.370,0.000,0.000,34.678
14925,4.184,0.000,3.196,0.000,12.370,0.000,0.000,34.681
14950,4.184,0.000,3.196,0.000,12.370,0.000,0.000,34.689
14975,4.184,0.000,3.196,0.000,12.370,0.000,0.000,34.658
15000,4.184,0.000,3.196,0.000,12.370,0.000,0.000,34.651
15025,4.184,0.000,3.196,0.000,12.370,0.000,0.000,34.646
15050,4.184,0.000,3.196,0.000,12.370,0.000,0.000,34.667
15075,4.184,0.000,3.196,0.000,12.370,0.000,0.000,34.632
15100,4.184,0.000,3.196,0.000,12.370,0.000,0.000,34.650
15125,4.184,0.000,3.196,0.000,12.370,0.000,0.000,34.680
15150,4.184,0.000,3.196,0.000,12.370,0.000,0.000,34.709
15175,4.184,0.000,3.196,0.000,12.370,0.000,0.000,34.657
15200,4.184,0.000,3.196,0.000,12.370,0.000,0.000,34.651
15225,4.184,0.000,3.196,0.000,12.370,0.000,0.000,34.709
15250,4.184,0.000,3.196,0.000,12.370,0.000,0.000,34.672
15275,4.184,0.000,3.196,0.000,12.370,0.000,0.000,34.674
15300,4.184,0.000,3.196,0.000,12.370,0.000,0.000,34.668
15325,4.184,0.000,3.196,0.000,12.370,0.000,0.000,34.662
15350,4.184,0.000,3.196,0.000,12.370,0.000,0.000,34.681
15375,4.184,0.000,3.196,0.000,12.370,0.000,0.000,34.690
15400,4.183,0.000,3.196,0.000,12.370,0.000,0.000,34.665
15425,4.184,0.000,3.196,0.000,12.370,0.000,0.000,34.671
15450,4.183,0.000,3.196,0.000,12.370,0.000,0.000,34.689
15475,4.184,0.000,3.196,0.000,12.370,0.000,0.000,34.666
15500,4.183,0.000,3.196,0.000,12.370,0.000,0.000,34.664
15525,4.184,0.000,3.196,0.000,12.370,0.000,0.000,34.719
15550,4.184,0.000,3.196,0.000,12.370,0.000,0.000,34.624
15575,4.183,0.000,3.196,0.000,12.370,0.000,0.000,34.666
15600,4.183,0.000,3.196,0.000,12.370,0.000,0.000,34.653
15625,4.183,0.000,3.196,0.000,12.370,0.000,0.000,34.678
15650,4.183,0.000,3.196,0.000,12.370,0.000,0.000,34.665
15675,4.183,0.000,3.196,0.000,12.370,0.000,0.000,34.666
15700,4.183,0.000,3.196,0.000,12.370,0.000,0.000,34.677
15725,4.183,0.000,3.196,0.000,12.370,0.000,0.000,34.657
15750,4.183,0.000,3.196,0.000,12.370,0.000,0.000,34.625
15775,4.183,0.000,3.196,0.000,12.370,0.000,0.000,34.662
15800,4.183,0.000,3.196,0.000,12.370,0.000,0.000,34.647
15825,4.183,0.000,3.196,0.000,12.370,0.000,0.000,34.638
15850,4.183,0.000,3.196,0.000,12.370,0.000,0.000,34.618
15875,4.183,0.000,3.196,0.000,12.370,0.000,0.000,34.693
15900,4.183,0.000,3.196,0.000,12.370,0.000,0.000,34.633
15925,4.183,0.000,3.196,0.000,12.370,0.000,0.000,34.639
15950,4.183,0.000,3.196,0.000,12.370,0.000,0.000,34.650
15975,4.183,0.000,3.196,0.000,12.370,0.000,0.000,34.684
16000,4.183,0.000,3.196,0.000,12.370,0.000,0.000,34.669
16025,4.183,0.000,3.196,0.000,12.370,0.000,0.000,34.673
16050,4.183,0.000,3.196,0.000,12.370,0.000,0.000,34.712
16075,4.183,0.000,3.196,0.000,12.370,0.000,0.000,34.661
16100,4.183,0.000,3.196,0.000,12.370,0.000,0.000,34.675
16125,4.182,0.000,3.196,0.000,12.370,0.000,0.000,34.657
16150,4.183,0.000,3.196,0.000,12.370,0.000,0.000,34.676
16175,4.182,0.000,3.196,0.000,12.370,0.000,0.000,34.675
16200,4.182,0.000,3.196,0.000,12.370,0.000,0.000,34.667
16225,4.182,0.000,3.196,0.000,12.370,0.000,0.000,34.630
16250,4.182,0.000,3.196,0.000,12.370,0.000,0.000,34.670
16275,4.182,0.000,3.196,0.000,12.370,0.000,0.000,34.667
16300,4.182,0.000,3.196,0.000,12.370,0.000,0.000,34.635
16325,4.182,0.000,3.196,0.000,12.370,0.000,0.000,34.697
16350,4.182,0.000,3.196,0.000,12.370,0.000,0.000,34.679
16375,4.182,0.000,3.196,0.000,12.370,0.000,0.000,34.670
16400,4.182,0.000,3.196,0.000,12.370,0.000,0.000,34.669
16425,4.182,0.000,3.196,0.000,12.370,0.000,0.000,34.664
16450,4.182,0.000,3.196,0.000,12.370,0.000,0.000,34.645
16475,4.182,0.000,3.196,0.000,12.370,0.000,0.000,34.704
16500,4.182,0.000,3.196,0.000,12.370,0.000,0.000,34.685
16525,4.182,0.000,3.196,0.000,12.370,0.000,0.000,34.649
16550,4.182,0.000,3.196,0.000,12.370,0.000,0.000,34.678
16575,4.182,0.000,3.196,0.000,12.370,0.000,0.000,34.654
16600,4.182,0.000,3.196,0.000,12.370,0.000,0.000,34.678
16625,4.182,0.000,3.196,0.000,12.370,0.000,0.000,34.652
16649,3.716,-6.702,3.196,0.024,12.371,0.091,-0.003,34.814
16674,3.677,-6.701,3.196,0.071,12.371,0.263,-0.001,35.494
16699,3.656,-6.701,3.196,0.117,12.371,0.433,-0.001,36.153
16724,3.641,-6.700,3.196,0.164,12.371,0.603,0.000,36.865
16749,3.628,-6.701,3.196,0.210,12.371,0.772,0.000,37.557
16774,3.614,-6.700,3.196,0.257,12.371,0.941,-0.001,38.141
16799,3.601,-6.700,3.196,0.303,12.371,1.108,-0.001,38.688
16824,3.586,-6.700,3.196,0.350,12.371,1.276,-0.001,39.042
16849,3.571,-6.700,3.196,0.396,12.371,1.442,-0.001,39.489
16874,3.555,-6.700,3.196,0.443,12.371,1.608,-0.001,39.938
16899,3.540,-6.699,3.196,0.490,12.371,1.773,-0.001,40.223
16924,3.523,-6.699,3.196,0.536,12.371,1.937,-0.001,40.637
16949,3.507,-6.699,3.196,0.583,12.371,2.101,-0.001,40.790
16974,3.491,-6.699,3.196,0.629,12.371,2.263,-0.001,41.066
16999,3.475,-6.699,3.196,0.676,12.371,2.426,-0.001,41.307
17024,3.459,-6.699,3.196,0.722,12.371,2.587,-0.001,41.571
17049,3.444,-6.699,3.196,0.769,12.371,2.747,-0.001,41.793
17074,3.428,-6.699,3.196,0.815,12.371,2.907,-0.001,41.977
17099,3.412,-6.699,3.196,0.862,12.371,3.066,-0.001,42.076
17124,3.397,-6.699,3.196,0.908,12.371,3.225,-0.001,42.313
17149,3.381,-6.699,3.196,0.955,12.371,3.382,-0.001,42.592
17174,3.365,-6.699,3.196,1.001,12.371,3.539,-0.001,42.779
17199,3.349,-6.698,3.196,1.048,12.371,3.695,0.000,42.806
17224,3.334,-6.698,3.196,1.094,12.371,3.851,0.000,43.098
17249,3.318,-6.699,3.196,1.141,12.371,4.006,-0.001,43.206
17274,3.302,-6.698,3.196,1.187,12.371,4.160,-0.001,43.383
17299,3.287,-6.698,3.196,1.234,12.371,4.313,0.000,43.623
17324,3.271,-6.698,3.196,1.280,12.371,4.465,-0.001,43.815
17349,3.256,-6.699,3.196,1.327,12.371,4.617,-0.001,43.914
17374,3.241,-6.698,3.196,1.373,12.371,4.768,-0.001,44.067
17399,3.226,-6.699,3.196,1.420,12.371,4.919,-0.001,44.162
17424,3.211,-6.698,3.196,1.466,12.371,5.068,-0.001,44.400
17449,3.197,-6.698,3.196,1.513,12.371,5.217,-0.001,44.480
17474,3.183,-6.698,3.196,1.559,12.371,5.366,0.000,44.672
17499,3.169,-6.699,3.196,1.606,12.371,5.514,-0.001,44.776
17524,3.155,-6.699,3.196,1.653,12.371,5.661,-0.001,44.847
17549,3.142,-6.698,3.196,1.699,12.371,5.807,-0.001,45.104
17574,3.129,-6.698,3.196,1.746,12.371,5.953,0.000,45.117
17599,3.116,-6.698,3.196,1.792,12.371,6.098,-0.001,45.257
17624,3.103,-6.698,3.196,1.839,12.371,6.243,-0.001,45.363
17649,3.090,-6.698,3.196,1.885,12.371,6.387,-0.001,45.454
17674,3.077,-6.698,3.196,1.932,12.371,6.530,-0.001,45.596
17699,3.064,-6.698,3.196,1.978,12.371,6.673,-0.001,45.730
17724,3.051,-6.698,3.196,2.025,12.371,6.815,-0.001,45.830
17749,3.038,-6.698,3.196,2.071,12.371,6.957,-0.001,46.057
17774,3.024,-6.698,3.196,2.118,12.371,7.098,-0.001,46.238
17799,3.010,-6.698,3.196,2.164,12.371,7.238,-0.001,46.416
17824,2.996,-6.698,3.196,2.211,12.371,7.378,0.000,46.607
17849,2.982,-6.698,3.196,2.257,12.371,7.517,-0.001,46.763
17874,2.967,-6.698,3.196,2.304,12.371,7.655,-0.001,46.726
17899,2.951,-6.698,3.196,2.350,12.371,7.793,-0.001,46.985
17924,2.936,-6.698,3.196,2.397,12.371,7.930,-0.001,47.213
17949,2.919,-6.698,3.196,2.443,12.371,8.066,-0.001,47.315
17974,2.902,-6.698,3.196,2.490,12.371,8.201,-0.001,47.484
17999,2.884,-6.698,3.196,2.536,12.371,8.336,-0.001,47.640
18024,2.866,-6.698,3.196,2.583,12.371,8.470,-0.001,47.900
18049,2.847,-6.698,3.196,2.629,12.371,8.603,-0.001,48.001
18074,2.827,-6.697,3.196,2.676,12.371,8.734,-0.001,48.166
18099,2.805,-6.698,3.196,2.722,12.371,8.866,-0.001,48.508
18124,2.783,-6.698,3.196,2.769,12.371,8.995,-0.001,48.525
18149,2.759,-6.698,3.196,2.815,12.371,9.124,-0.001,48.753
18174,2.733,-6.698,3.196,2.862,12.371,9.252,-0.001,48.965
18199,2.705,-6.698,3.196,2.908,12.371,9.379,-0.001,49.259
18224,2.673,-6.697,3.196,2.955,12.371,9.504,-0.001,49.576
18249,2.636,-6.698,3.196,3.001,12.371,9.627,-0.002,49.926
18274,2.593,-6.698,3.196,3.048,12.371,9.749,-0.002,50.236
18299,2.539,-6.698,3.196,3.094,12.371,9.868,-0.002,50.693
18324,3.139,0.000,3.196,3.122,12.371,9.937,0.006,51.011
18349,3.225,0.000,3.196,3.122,12.371,9.937,0.002,49.944
18374,3.263,0.000,3.196,3.122,12.371,9.937,0.001,48.876
18399,3.283,0.000,3.196,3.122,12.371,9.937,0.000,47.651
18424,3.294,0.000,3.196,3.122,12.371,9.937,0.000,46.702
18449,3.302,0.000,3.196,3.122,12.371,9.937,0.000,45.563
18474,3.306,0.000,3.196,3.122,12.371,9.937,0.000,44.728
18499,3.310,0.000,3.196,3.122,12.371,9.937,0.000,43.922
18524,3.312,0.000,3.196,3.122,12.371,9.937,0.000,43.187
18549,3.314,0.000,3.196,3.122,12.371,9.937,0.000,42.526
18574,3.316,0.000,3.196,3.122,12.371,9.937,0.000,41.896
18599,3.317,0.000,3.196,3.122,12.371,9.937,0.000,41.391
18624,3.318,0.000,3.196,3.122,12.371,9.937,0.000,40.855
18649,3.319,0.000,3.196,3.122,12.371,9.937,0.000,40.376
18674,3.319,0.000,3.196,3.122,12.371,9.937,0.000,39.951
18699,3.320,0.000,3.196,3.122,12.371,9.937,0.000,39.528
18724,3.320,0.000,3.196,3.122,12.371,9.937,0.000,39.174
18749,3.321,0.000,3.196,3.122,12.371,9.937,0.000,38.863
18774,3.321,0.000,3.196,3.122,12.371,9.937,0.000,38.484
18799,3.321,0.000,3.196,3.122,12.371,9.937,0.000,38.276
18824,3.321,0.000,3.196,3.122,12.371,9.937,0.000,37.984
18849,3.322,0.000,3.196,3.122,12.371,9.937,0.000,37.764
18874,3.322,0.000,3.196,3.122,12.371,9.937,0.000,37.542
18899,3.322,0.000,3.196,3.122,12.371,9.937,0.000,37.347
18924,3.323,0.000,3.196,3.122,12.371,9.937,0.000,37.132
18949,3.322,0.000,3.196,3.122,12.371,9.937,0.000,36.975
18974,3.323,0.000,3.196,3.122,12.371,9.937,0.000,36.792
18999,3.323,0.000,3.196,3.122,12.371,9.937,0.000,36.700
19024,3.323,0.000,3.196,3.122,12.371,9.937,0.000,36.550
19049,3.323,0.000,3.196,3.122,12.371,9.937,0.000,36.352
19074,3.323,0.000,3.196,3.122,12.371,9.937,0.000,36.282
19099,3.323,0.000,3.196,3.122,12.371,9.937,0.000,36.196
19124,3.323,0.000,3.196,3.122,12.371,9.937,0.000,36.066
19149,3.323,0.000,3.196,3.122,12.371,9.937,0.000,35.947
19174,3.323,0.000,3.196,3.122,12.371,9.937,0.000,35.870
19199,3.323,0.000,3.196,3.122,12.371,9.937,0.000,35.805
19224,3.323,0.000,3.196,3.122,12.371,9.937,0.000,35.712
19249,3.323,0.000,3.196,3.122,12.371,9.937,0.000,35.614
19274,3.323,0.000,3.196,3.122,12.371,9.937,0.000,35.529
19299,3.323,0.000,3.196,3.122,12.371,9.937,0.000,35.522
19324,3.323,0.000,3.196,3.122,12.371,9.937,0.000,35.472
19349,3.323,0.000,3.196,3.122,12.371,9.937,0.000,35.475
19374,3.323,0.000,3.196,3.122,12.371,9.937,0.000,35.380
19399,3.323,0.000,3.196,3.122,12.371,9.937,0.000,35.345
19424,3.323,0.000,3.196,3.122,12.371,9.937,0.000,35.306
19449,3.323,0.000,3.196,3.122,12.371,9.937,0.000,35.252
19474,3.323,0.000,3.196,3.122,12.371,9.937,0.000,35.206
19499,3.323,0.000,3.196,3.122,12.371,9.937,0.000,35.193
19524,3.323,0.000,3.196,3.122,12.371,9.937,0.000,35.128
19549,3.323,0.000,3.196,3.122,12.371,9.937,0.000,35.138
19574,3.323,0.000,3.196,3.122,12.371,9.937,0.000,35.124
19599,3.323,0.000,3.196,3.122,12.371,9.937,0.000,35.071
19624,3.323,0.000,3.196,3.122,12.371,9.937,0.000,35.021
19649,3.323,0.000,3.196,3.122,12.371,9.937,0.000,35.019
19674,3.323,0.000,3.196,3.122,12.371,9.937,0.000,34.977
19699,3.323,0.000,3.196,3.122,12.371,9.937,0.000,34.967
19724,3.323,0.000,3.196,3.122,12.371,9.937,0.000,35.002
19749,3.323,0.000,3.196,3.122,12.371,9.937,0.000,34.969
19774,3.323,0.000,3.196,3.122,12.371,9.937,0.000,34.940
19799,3.323,0.000,3.196,3.122,12.371,9.937,0.000,34.887
19824,3.323,0.000,3.196,3.122,12.371,9.937,0.000,34.907
19849,3.323,0.000,3.196,3.122,12.371,9.937,0.000,34.829
19874,3.323,0.000,3.196,3.122,12.371,9.937,0.000,34.831
19899,3.323,0.000,3.196,3.122,12.371,9.937,0.000,34.837
19924,3.323,0.000,3.196,3.122,12.371,9.937,0.000,34.834
19949,3.323,0.000,3.196,3.122,12.371,9.937,0.000,34.835
19974,3.323,0.000,3.196,3.122,12.371,9.937,0.000,34.810
19999,3.323,0.000,3.196,3.122,12.371,9.937,0.000,34.839
20024,3.323,0.000,3.196,3.122,12.371,9.937,0.000,34.793
20049,3.323,0.000,3.196,3.122,12.371,9.937,0.000,34.811
20074,3.323,0.000,3.196,3.122,12.371,9.937,0.000,34.754
20099,3.323,0.000,3.196,3.122,12.371,9.937,0.000,34.783
20124,3.323,0.000,3.196,3.122,12.371,9.937,0.000,34.750
20149,3.323,0.000,3.196,3.122,12.371,9.937,0.000,34.743
20174,3.323,0.000,3.196,3.122,12.371,9.937,0.000,34.763
20199,3.323,0.000,3.196,3.122,12.371,9.937,0.000,34.778
20224,3.323,0.000,3.196,3.122,12.371,9.937,0.000,34.756
20249,3.323,0.000,3.196,3.122,12.371,9.937,0.000,34.816
20274,3.323,0.000,3.196,3.122,12.371,9.937,0.000,34.751
20299,3.323,0.000,3.196,3.122,12.371,9.937,0.000,34.708
20324,3.323,0.000,3.196,3.122,12.371,9.937,0.000,34.741
20349,3.323,0.000,3.196,3.122,12.371,9.937,0.000,34.713
20374,3.323,0.000,3.196,3.122,12.371,9.937,0.000,34.746
20399,3.323,0.000,3.196,3.122,12.371,9.937,0.000,34.708
20424,3.323,0.000,3.196,3.122,12.371,9.937,0.000,34.716
20449,3.323,0.000,3.196,3.122,12.371,9.937,0.000,34.730
20474,3.324,0.000,3.196,3.122,12.371,9.937,0.000,34.719
20499,3.323,0.000,3.196,3.122,12.371,9.937,0.000,34.699
20524,3.324,0.000,3.196,3.122,12.371,9.937,0.000,34.716
20549,3.323,0.000,3.196,3.122,12.371,9.937,0.000,34.699
20574,3.323,0.000,3.196,3.122,12.371,9.937,0.000,34.707
20599,3.323,0.000,3.196,3.122,12.371,9.937,0.000,34.714
20624,3.323,0.000,3.196,3.122,12.371,9.937,0.000,34.736
20649,3.323,0.000,3.196,3.122,12.371,9.937,0.000,34.705
20674,3.323,0.000,3.196,3.122,12.371,9.937,0.000,34.702
20699,3.323,0.000,3.196,3.122,12.371,9.937,0.000,34.699
20724,3.324,0.000,3.196,3.122,12.371,9.937,0.000,34.670
20749,3.324,0.000,3.196,3.122,12.371,9.937,0.000,34.678
20774,3.323,0.000,3.196,3.122,12.371,9.937,0.000,34.727
20799,3.324,0.000,3.196,3.122,12.371,9.937,0.000,34.711
20824,3.324,0.000,3.196,3.122,12.371,9.937,0.000,34.753
20849,3.323,0.000,3.196,3.122,12.371,9.937,0.000,34.687
20874,3.323,0.000,3.196,3.122,12.371,9.937,0.000,34.722
20899,3.323,0.000,3.196,3.122,12.371,9.937,0.000,34.698
20924,3.324,0.000,3.196,3.122,12.371,9.937,0.000,34.681
20949,3.323,0.000,3.196,3.122,12.371,9.937,0.000,34.690
20974,3.323,0.000,3.196,3.122,12.371,9.937,0.000,34.714
20999,3.323,0.000,3.196,3.122,12.371,9.937,0.000,34.708
21024,3.323,0.000,3.196,3.122,12.371,9.937,0.000,34.688
21049,3.323,0.000,3.196,3.122,12.371,9.937,0.000,34.650
21074,3.324,0.000,3.196,3.122,12.371,9.937,0.000,34.699
21099,3.323,0.000,3.196,3.122,12.371,9.937,0.000,34.645
21124,3.324,0.000,3.196,3.122,12.371,9.937,0.000,34.656
21149,3.323,0.000,3.196,3.122,12.371,9.937,0.000,34.657
21174,3.324,0.000,3.196,3.122,12.371,9.937,0.000,34.692
21199,3.323,0.000,3.196,3.122,12.371,9.937,0.000,34.682
21224,3.323,0.000,3.196,3.122,12.371,9.937,0.000,34.681
21249,3.324,0.000,3.196,3.122,12.371,9.937,0.000,34.709
21274,3.324,0.000,3.196,3.122,12.371,9.937,0.000,34.693
21299,3.323,0.000,3.196,3.122,12.371,9.937,0.000,34.669
21324,3.324,0.000,3.196,3.122,12.371,9.937,0.000,34.657
21349,3.324,0.000,3.196,3.122,12.371,9.937,0.000,34.716
21374,3.324,0.000,3.196,3.122,12.371,9.937,0.000,34.671
21399,3.324,0.000,3.196,3.122,12.371,9.937,0.000,34.700
21424,3.324,0.000,3.196,3.122,12.371,9.937,0.000,34.684
21449,3.324,0.000,3.196,3.122,12.371,9.937,0.000,34.691
21474,3.323,0.000,3.196,3.122,12.371,9.937,0.000,34.684
21499,3.324,0.000,3.196,3.122,12.371,9.937,0.000,34.699
21524,3.324,0.000,3.196,3.122,12.371,9.937,0.000,34.698
21549,3.324,0.000,3.196,3.122,12.371,9.937,0.000,34.690
21574,3.324,0.000,3.196,3.122,12.371,9.937,0.000,34.672
21599,3.324,0.000,3.196,3.122,12.371,9.937,0.000,34.697
21624,3.323,0.000,3.196,3.122,12.371,9.937,0.000,34.733
21649,3.324,0.000,3.196,3.122,12.371,9.937,0.000,34.676
21674,3.324,0.000,3.196,3.122,12.371,9.937,0.000,34.703
21699,3.324,0.000,3.196,3.122,12.371,9.937,0.000,34.658
21724,3.324,0.000,3.196,3.122,12.371,9.937,0.000,34.704
21749,3.324,0.000,3.196,3.122,12.371,9.937,0.000,34.689
21774,3.324,0.000,3.196,3.122,12.371,9.937,0.000,34.714
21799,3.324,0.000,3.196,3.122,12.371,9.937,0.000,34.675
21824,3.324,0.000,3.196,3.122,12.371,9.937,0.000,34.689
21849,3.324,0.000,3.196,3.122,12.371,9.937,0.000,34.702
21874,3.324,0.000,3.196,3.122,12.371,9.937,0.000,34.715
21899,3.324,0.000,3.196,3.122,12.371,9.937,0.000,34.675
21914,3.324,0.000,3.196,3.122,12.371,9.937,0.000,34.689