File: data/T35/2C/3.csv
time_s,voltage_v,current_a,chargecapacity_ah,dischargecapacity_ah,charge_energy_wh,discharge_energy_wh,voltagedot_v_per_s,temp_degc
1,3.290,0.000,0.000,0.000,0.000,0.000,0.000,34.220
26,3.290,0.000,0.000,0.000,0.000,0.000,0.000,34.224
51,3.290,0.000,0.000,0.000,0.000,0.000,0.000,34.222
76,3.290,0.000,0.000,0.000,0.000,0.000,0.000,34.181
101,3.290,0.000,0.000,0.000,0.000,0.000,0.000,34.219
126,3.290,0.000,0.000,0.000,0.000,0.000,0.000,34.210
151,3.290,0.000,0.000,0.000,0.000,0.000,0.000,34.209
176,3.290,0.000,0.000,0.000,0.000,0.000,0.000,34.225
201,3.291,0.000,0.000,0.000,0.000,0.000,0.000,34.216
226,3.290,0.000,0.000,0.000,0.000,0.000,0.000,34.256
251,3.290,0.000,0.000,0.000,0.000,0.000,0.000,34.214
276,3.290,0.000,0.000,0.000,0.000,0.000,0.000,34.221
301,3.290,0.000,0.000,0.000,0.000,0.000,0.000,34.221
326,3.290,0.000,0.000,0.000,0.000,0.000,0.000,34.230
351,3.291,0.000,0.000,0.000,0.000,0.000,0.000,34.219
376,3.291,0.000,0.000,0.000,0.000,0.000,0.000,34.221
401,3.291,0.000,0.000,0.000,0.000,0.000,0.000,34.221
426,3.291,0.000,0.000,0.000,0.000,0.000,0.000,34.245
451,3.291,0.000,0.000,0.000,0.000,0.000,0.000,34.239
476,3.291,0.000,0.000,0.000,0.000,0.000,0.000,34.262
501,3.291,0.000,0.000,0.000,0.000,0.000,0.000,34.232
526,3.291,0.000,0.000,0.000,0.000,0.000,0.000,34.241
551,3.291,0.000,0.000,0.000,0.000,0.000,0.000,34.260
576,3.291,0.000,0.000,0.000,0.000,0.000,0.000,34.280
601,3.291,0.000,0.000,0.000,0.000,0.000,0.000,34.242
626,3.291,0.000,0.000,0.000,0.000,0.000,0.000,34.211
651,3.291,0.000,0.000,0.000,0.000,0.000,0.000,34.269
676,3.291,0.000,0.000,0.000,0.000,0.000,0.000,34.265
701,3.291,0.000,0.000,0.000,0.000,0.000,0.000,34.254
726,3.291,0.000,0.000,0.000,0.000,0.000,0.000,34.225
751,3.291,0.000,0.000,0.000,0.000,0.000,0.000,34.237
776,3.291,0.000,0.000,0.000,0.000,0.000,0.000,34.257
801,3.291,0.000,0.000,0.000,0.000,0.000,0.000,34.253
826,3.291,0.000,0.000,0.000,0.000,0.000,0.000,34.213
851,3.291,0.000,0.000,0.000,0.000,0.000,0.000,34.244
876,3.291,0.000,0.000,0.000,0.000,0.000,0.000,34.251
901,3.291,0.000,0.000,0.000,0.000,0.000,0.000,34.222
926,3.291,0.000,0.000,0.000,0.000,0.000,0.000,34.226
951,3.291,0.000,0.000,0.000,0.000,0.000,0.000,34.207
976,3.291,0.000,0.000,0.000,0.000,0.000,0.000,34.253
1001,3.291,0.000,0.000,0.000,0.000,0.000,0.000,34.232
1026,3.291,0.000,0.000,0.000,0.000,0.000,0.000,34.231
1051,3.291,0.000,0.000,0.000,0.000,0.000,0.000,34.218
1076,3.291,0.000,0.000,0.000,0.000,0.000,0.000,34.232
1101,3.291,0.000,0.000,0.000,0.000,0.000,0.000,34.286
1126,3.291,0.000,0.000,0.000,0.000,0.000,0.000,34.192
1151,3.291,0.000,0.000,0.000,0.000,0.000,0.000,34.168
1176,3.291,0.000,0.000,0.000,0.000,0.000,0.000,34.211
1201,3.291,0.000,0.000,0.000,0.000,0.000,0.000,34.236
1226,3.291,0.000,0.000,0.000,0.000,0.000,0.000,34.206
1251,3.291,0.000,0.000,0.000,0.000,0.000,0.000,34.259
1276,3.291,0.000,0.000,0.000,0.000,0.000,0.000,34.236
1301,3.291,0.000,0.000,0.000,0.000,0.000,0.000,34.221
1326,3.291,0.000,0.000,0.000,0.000,0.000,0.000,34.222
1351,3.291,0.000,0.000,0.000,0.000,0.000,0.000,34.247
1376,3.291,0.000,0.000,0.000,0.000,0.000,0.000,34.233
1401,3.291,0.000,0.000,0.000,0.000,0.000,0.000,34.212
1426,3.291,0.000,0.000,0.000,0.000,0.000,0.000,34.239
1451,3.291,0.000,0.000,0.000,0.000,0.000,0.000,34.230
1476,3.291,0.000,0.000,0.000,0.000,0.000,0.000,34.167
1501,3.291,0.000,0.000,0.000,0.000,0.000,0.000,34.214
1526,3.291,0.000,0.000,0.000,0.000,0.000,0.000,34.187
1551,3.291,0.000,0.000,0.000,0.000,0.000,0.000,34.270
1576,3.291,0.000,0.000,0.000,0.000,0.000,0.000,34.237
1601,3.291,0.000,0.000,0.000,0.000,0.000,0.000,34.226
1626,3.291,0.000,0.000,0.000,0.000,0.000,0.000,34.223
1651,3.291,0.000,0.000,0.000,0.000,0.000,0.000,34.254
1676,3.291,0.000,0.000,0.000,0.000,0.000,0.000,34.235
1701,3.291,0.000,0.000,0.000,0.000,0.000,0.000,34.207
1726,3.291,0.000,0.000,0.000,0.000,0.000,0.000,34.216
1751,3.291,0.000,0.000,0.000,0.000,0.000,0.000,34.210
1776,3.291,0.000,0.000,0.000,0.000,0.000,0.000,34.211
1801,3.291,0.000,0.000,0.000,0.000,0.000,0.000,34.204
1826,3.291,0.000,0.000,0.000,0.000,0.000,0.000,34.235
1851,3.291,0.000,0.000,0.000,0.000,0.000,0.000,34.211
1876,3.291,0.000,0.000,0.000,0.000,0.000,0.000,34.225
1901,3.291,0.000,0.000,0.000,0.000,0.000,0.000,34.209
1926,3.291,0.000,0.000,0.000,0.000,0.000,0.000,34.211
1951,3.291,0.000,0.000,0.000,0.000,0.000,0.000,34.215
1976,3.291,0.000,0.000,0.000,0.000,0.000,0.000,34.210
2001,3.291,0.000,0.000,0.000,0.000,0.000,0.000,34.205
2026,3.291,0.000,0.000,0.000,0.000,0.000,0.000,34.178
2051,3.291,0.000,0.000,0.000,0.000,0.000,0.000,34.271
2076,3.291,0.000,0.000,0.000,0.000,0.000,0.000,34.226
2101,3.291,0.000,0.000,0.000,0.000,0.000,0.000,34.218
2126,3.291,0.000,0.000,0.000,0.000,0.000,0.000,34.229
2151,3.291,0.000,0.000,0.000,0.000,0.000,0.000,34.192
2176,3.291,0.000,0.000,0.000,0.000,0.000,0.000,34.239
2201,3.291,0.000,0.000,0.000,0.000,0.000,0.000,34.188
2226,3.291,0.000,0.000,0.000,0.000,0.000,0.000,34.188
2251,3.291,0.000,0.000,0.000,0.000,0.000,0.000,34.239
2276,3.291,0.000,0.000,0.000,0.000,0.000,0.000,34.225
2301,3.291,0.000,0.000,0.000,0.000,0.000,0.000,34.264
2326,3.291,0.000,0.000,0.000,0.000,0.000,0.000,34.216
2351,3.291,0.000,0.000,0.000,0.000,0.000,0.000,34.232
2376,3.291,0.000,0.000,0.000,0.000,0.000,0.000,34.250
2401,3.291,0.000,0.000,0.000,0.000,0.000,0.000,34.213
2426,3.292,0.000,0.000,0.000,0.000,0.000,0.000,34.218
2451,3.291,0.000,0.000,0.000,0.000,0.000,0.000,34.218
2476,3.291,0.000,0.000,0.000,0.000,0.000,0.000,34.230
2501,3.291,0.000,0.000,0.000,0.000,0.000,0.000,34.225
2526,3.291,0.000,0.000,0.000,0.000,0.000,0.000,34.232
2551,3.292,0.000,0.000,0.000,0.000,0.000,0.000,34.241
2576,3.292,0.000,0.000,0.000,0.000,0.000,0.000,34.238
2601,3.291,0.000,0.000,0.000,0.000,0.000,0.000,34.215
2626,3.292,0.000,0.000,0.000,0.000,0.000,0.000,34.194
2651,3.292,0.000,0.000,0.000,0.000,0.000,0.000,34.202
2676,3.291,0.000,0.000,0.000,0.000,0.000,0.000,34.228
2701,3.291,0.000,0.000,0.000,0.000,0.000,0.000,34.209
2726,3.292,0.000,0.000,0.000,0.000,0.000,0.000,34.233
2751,3.292,0.000,0.000,0.000,0.000,0.000,0.000,34.227
2776,3.292,0.000,0.000,0.000,0.000,0.000,0.000,34.233
2801,3.292,0.000,0.000,0.000,0.000,0.000,0.000,34.247
2826,3.292,0.000,0.000,0.000,0.000,0.000,0.000,34.231
2851,3.292,0.000,0.000,0.000,0.000,0.000,0.000,34.198
2876,3.292,0.000,0.000,0.000,0.000,0.000,0.000,34.237
2901,3.292,0.000,0.000,0.000,0.000,0.000,0.000,34.222
2926,3.292,0.000,0.000,0.000,0.000,0.000,0.000,34.211
2951,3.292,0.000,0.000,0.000,0.000,0.000,0.000,34.215
2976,3.292,0.000,0.000,0.000,0.000,0.000,0.000,34.257
3001,3.292,0.000,0.000,0.000,0.000,0.000,0.000,34.256
3026,3.292,0.000,0.000,0.000,0.000,0.000,0.000,34.223
3051,3.292,0.000,0.000,0.000,0.000,0.000,0.000,34.244
3076,3.292,0.000,0.000,0.000,0.000,0.000,0.000,34.240
3101,3.292,0.000,0.000,0.000,0.000,0.000,0.000,34.250
3126,3.292,0.000,0.000,0.000,0.000,0.000,0.000,34.217
3151,3.292,0.000,0.000,0.000,0.000,0.000,0.000,34.190
3176,3.292,0.000,0.000,0.000,0.000,0.000,0.000,34.263
3201,3.292,0.000,0.000,0.000,0.000,0.000,0.000,34.223
3226,3.292,0.000,0.000,0.000,0.000,0.000,0.000,34.232
3251,3.292,0.000,0.000,0.000,0.000,0.000,0.000,34.226
3276,3.292,0.000,0.000,0.000,0.000,0.000,0.000,34.209
3301,3.292,0.000,0.000,0.000,0.000,0.000,0.000,34.214
3326,3.292,0.000,0.000,0.000,0.000,0.000,0.000,34.232
3351,3.292,0.000,0.000,0.000,0.000,0.000,0.000,34.284
3376,3.292,0.000,0.000,0.000,0.000,0.000,0.000,34.222
3401,3.292,0.000,0.000,0.000,0.000,0.000,0.000,34.207
3426,3.292,0.000,0.000,0.000,0.000,0.000,0.000,34.258
3451,3.292,0.000,0.000,0.000,0.000,0.000,0.000,34.228
3476,3.292,0.000,0.000,0.000,0.000,0.000,0.000,34.222
3501,3.292,0.000,0.000,0.000,0.000,0.000,0.000,34.241
3526,3.292,0.000,0.000,0.000,0.000,0.000,0.000,34.242
3551,3.292,0.000,0.000,0.000,0.000,0.000,0.000,34.214
3576,3.292,0.000,0.000,0.000,0.000,0.000,0.000,34.238
3600,3.292,0.000,0.000,0.000,0.000,0.000,0.000,34.235
3625,3.489,1.625,0.011,0.000,0.039,0.000,0.001,34.183
3650,3.502,1.625,0.023,0.000,0.079,0.000,0.000,34.286
3675,3.507,1.625,0.034,0.000,0.118,0.000,0.000,34.303
3700,3.511,1.625,0.045,0.000,0.158,0.000,0.000,34.377
3725,3.513,1.625,0.056,0.000,0.197,0.000,0.000,34.480
3750,3.516,1.625,0.068,0.000,0.237,0.000,0.000,34.587
3775,3.519,1.625,0.079,0.000,0.277,0.000,0.000,34.648
3800,3.522,1.625,0.090,0.000,0.317,0.000,0.000,34.693
3825,3.524,1.625,0.102,0.000,0.356,0.000,0.000,34.738
3850,3.527,1.625,0.113,0.000,0.396,0.000,0.000,34.776
3875,3.530,1.625,0.124,0.000,0.436,0.000,0.000,34.858
3900,3.533,1.625,0.135,0.000,0.476,0.000,0.000,34.889
3925,3.536,1.625,0.147,0.000,0.516,0.000,0.000,34.933
3950,3.538,1.625,0.158,0.000,0.556,0.000,0.000,35.005
3975,3.541,1.625,0.169,0.000,0.596,0.000,0.000,35.056
4000,3.544,1.625,0.181,0.000,0.636,0.000,0.000,35.070
4025,3.547,1.625,0.192,0.000,0.676,0.000,0.000,35.134
4050,3.549,1.625,0.203,0.000,0.716,0.000,0.000,35.140
4075,3.552,1.625,0.214,0.000,0.756,0.000,0.000,35.177
4100,3.555,1.625,0.226,0.000,0.796,0.000,0.000,35.242
4125,3.557,1.625,0.237,0.000,0.836,0.000,0.000,35.231
4150,3.560,1.625,0.248,0.000,0.876,0.000,0.000,35.252
4175,3.563,1.625,0.260,0.000,0.916,0.000,0.000,35.284
4200,3.566,1.625,0.271,0.000,0.956,0.000,0.000,35.310
4225,3.568,1.625,0.282,0.000,0.997,0.000,0.000,35.327
4250,3.571,1.625,0.293,0.000,1.037,0.000,0.000,35.332
4275,3.574,1.625,0.305,0.000,1.077,0.000,0.000,35.323
4300,3.577,1.625,0.316,0.000,1.118,0.000,0.000,35.363
4325,3.580,1.625,0.327,0.000,1.158,0.000,0.000,35.365
4350,3.583,1.625,0.339,0.000,1.199,0.000,0.000,35.356
4375,3.586,1.625,0.350,0.000,1.239,0.000,0.000,35.407
4400,3.589,1.625,0.361,0.000,1.279,0.000,0.000,35.293
4425,3.592,1.625,0.372,0.000,1.320,0.000,0.000,35.366
4450,3.596,1.625,0.384,0.000,1.361,0.000,0.000,35.376
4475,3.599,1.625,0.395,0.000,1.401,0.000,0.000,35.368
4500,3.602,1.625,0.406,0.000,1.442,0.000,0.000,35.340
4525,3.605,1.625,0.418,0.000,1.482,0.000,0.000,35.330
4550,3.608,1.625,0.429,0.000,1.523,0.000,0.000,35.321
4575,3.611,1.625,0.440,0.000,1.564,0.000,0.000,35.341
4600,3.614,1.625,0.451,0.000,1.605,0.000,0.000,35.321
4625,3.617,1.625,0.463,0.000,1.645,0.000,0.000,35.300
4650,3.620,1.625,0.474,0.000,1.686,0.000,0.000,35.315
4675,3.623,1.625,0.485,0.000,1.727,0.000,0.000,35.279
4700,3.625,1.625,0.497,0.000,1.768,0.000,0.000,35.313
4725,3.628,1.625,0.508,0.000,1.809,0.000,0.000,35.276
4750,3.631,1.625,0.519,0.000,1.850,0.000,0.000,35.278
4775,3.633,1.625,0.530,0.000,1.891,0.000,0.000,35.303
4800,3.635,1.625,0.542,0.000,1.932,0.000,0.000,35.263
4825,3.637,1.625,0.553,0.000,1.973,0.000,0.000,35.272
4850,3.640,1.625,0.564,0.000,2.014,0.000,0.000,35.262
4875,3.642,1.625,0.576,0.000,2.055,0.000,0.000,35.246
4900,3.644,1.625,0.587,0.000,2.096,0.000,0.000,35.258
4925,3.646,1.625,0.598,0.000,2.137,0.000,0.000,35.262
4950,3.648,1.625,0.609,0.000,2.179,0.000,0.000,35.219
4975,3.650,1.625,0.621,0.000,2.220,0.000,0.000,35.317
5000,3.652,1.625,0.632,0.000,2.261,0.000,0.000,35.289
5025,3.655,1.625,0.643,0.000,2.302,0.000,0.000,35.236
5050,3.657,1.625,0.655,0.000,2.343,0.000,0.000,35.252
5075,3.659,1.625,0.666,0.000,2.385,0.000,0.000,35.240
5100,3.661,1.625,0.677,0.000,2.426,0.000,0.000,35.237
5125,3.663,1.625,0.688,0.000,2.467,0.000,0.000,35.248
5150,3.666,1.625,0.700,0.000,2.509,0.000,0.000,35.308
5175,3.668,1.625,0.711,0.000,2.550,0.000,0.000,35.275
5200,3.670,1.625,0.722,0.000,2.592,0.000,0.000,35.273
5225,3.673,1.625,0.734,0.000,2.633,0.000,0.000,35.287
5250,3.675,1.625,0.745,0.000,2.674,0.000,0.000,35.289
5275,3.677,1.625,0.756,0.000,2.716,0.000,0.000,35.313
5300,3.680,1.625,0.767,0.000,2.757,0.000,0.000,35.311
5325,3.682,1.625,0.779,0.000,2.799,0.000,0.000,35.301
5350,3.684,1.625,0.790,0.000,2.841,0.000,0.000,35.316
5375,3.687,1.625,0.801,0.000,2.882,0.000,0.000,35.308
5400,3.689,1.625,0.813,0.000,2.924,0.000,0.000,35.327
5425,3.692,1.625,0.824,0.000,2.965,0.000,0.000,35.314
5450,3.694,1.625,0.835,0.000,3.007,0.000,0.000,35.317
5475,3.696,1.625,0.846,0.000,3.049,0.000,0.000,35.341
5500,3.698,1.625,0.858,0.000,3.091,0.000,0.000,35.374
5525,3.701,1.625,0.869,0.000,3.132,0.000,0.000,35.382
5550,3.703,1.625,0.880,0.000,3.174,0.000,0.000,35.372
5575,3.706,1.625,0.892,0.000,3.216,0.000,0.000,35.348
5600,3.708,1.625,0.903,0.000,3.258,0.000,0.000,35.387
5625,3.710,1.625,0.914,0.000,3.300,0.000,0.000,35.367
5650,3.713,1.625,0.925,0.000,3.342,0.000,0.000,35.379
5675,3.715,1.625,0.937,0.000,3.383,0.000,0.000,35.383
5700,3.717,1.625,0.948,0.000,3.425,0.000,0.000,35.447
5725,3.720,1.625,0.959,0.000,3.467,0.000,0.000,35.443
5750,3.722,1.625,0.971,0.000,3.509,0.000,0.000,35.476
5775,3.724,1.625,0.982,0.000,3.551,0.000,0.000,35.458
5800,3.727,1.625,0.993,0.000,3.593,0.000,0.000,35.473
5825,3.729,1.625,1.004,0.000,3.636,0.000,0.000,35.509
5850,3.731,1.625,1.016,0.000,3.678,0.000,0.000,35.434
5875,3.733,1.625,1.027,0.000,3.720,0.000,0.000,35.492
5900,3.736,1.625,1.038,0.000,3.762,0.000,0.000,35.494
5925,3.738,1.625,1.050,0.000,3.804,0.000,0.000,35.463
5950,3.740,1.625,1.061,0.000,3.846,0.000,0.000,35.537
5975,3.742,1.625,1.072,0.000,3.888,0.000,0.000,35.529
6000,3.744,1.625,1.083,0.000,3.931,0.000,0.000,35.571
6025,3.746,1.625,1.095,0.000,3.973,0.000,0.000,35.542
6050,3.748,1.625,1.106,0.000,4.015,0.000,0.000,35.557
6075,3.750,1.625,1.117,0.000,4.058,0.000,0.000,35.576
6100,3.752,1.625,1.129,0.000,4.100,0.000,0.000,35.535
6125,3.754,1.625,1.140,0.000,4.142,0.000,0.000,35.575
6150,3.756,1.625,1.151,0.000,4.185,0.000,0.000,35.576
6175,3.759,1.625,1.162,0.000,4.227,0.000,0.000,35.571
6200,3.761,1.625,1.174,0.000,4.270,0.000,0.000,35.607
6225,3.763,1.625,1.185,0.000,4.312,0.000,0.000,35.598
6250,3.765,1.625,1.196,0.000,4.354,0.000,0.000,35.567
6275,3.767,1.625,1.208,0.000,4.397,0.000,0.000,35.565
6300,3.769,1.625,1.219,0.000,4.439,0.000,0.000,35.618
6325,3.771,1.625,1.230,0.000,4.482,0.000,0.000,35.597
6350,3.773,1.625,1.242,0.000,4.525,0.000,0.000,35.628
6375,3.775,1.625,1.253,0.000,4.567,0.000,0.000,35.588
6400,3.777,1.625,1.264,0.000,4.610,0.000,0.000,35.601
6425,3.780,1.625,1.275,0.000,4.652,0.000,0.000,35.626
6450,3.782,1.625,1.287,0.000,4.695,0.000,0.000,35.620
6475,3.784,1.625,1.298,0.000,4.738,0.000,0.000,35.656
6500,3.786,1.625,1.309,0.000,4.781,0.000,0.000,35.661
6525,3.788,1.625,1.321,0.000,4.823,0.000,0.000,35.642
6550,3.790,1.625,1.332,0.000,4.866,0.000,0.000,35.636
6575,3.793,1.625,1.343,0.000,4.909,0.000,0.000,35.672
6600,3.795,1.625,1.354,0.000,4.952,0.000,0.000,35.639
6625,3.797,1.625,1.366,0.000,4.995,0.000,0.000,35.629
6650,3.800,1.625,1.377,0.000,5.037,0.000,0.000,35.652
6675,3.802,1.625,1.388,0.000,5.080,0.000,0.000,35.635
6700,3.804,1.625,1.400,0.000,5.123,0.000,0.000,35.644
6725,3.807,1.625,1.411,0.000,5.166,0.000,0.000,35.651
6750,3.809,1.625,1.422,0.000,5.209,0.000,0.000,35.617
6775,3.811,1.625,1.433,0.000,5.252,0.000,0.000,35.679
6800,3.814,1.625,1.445,0.000,5.295,0.000,0.000,35.643
6825,3.817,1.625,1.456,0.000,5.338,0.000,0.000,35.642
6850,3.819,1.625,1.467,0.000,5.381,0.000,0.000,35.659
6875,3.822,1.625,1.479,0.000,5.424,0.000,0.000,35.640
6900,3.824,1.625,1.490,0.000,5.468,0.000,0.000,35.677
6925,3.827,1.625,1.501,0.000,5.511,0.000,0.000,35.713
6950,3.829,1.625,1.512,0.000,5.554,0.000,0.000,35.715
6975,3.832,1.625,1.524,0.000,5.597,0.000,0.000,35.673
7000,3.835,1.625,1.535,0.000,5.640,0.000,0.000,35.646
7025,3.837,1.625,1.546,0.000,5.684,0.000,0.000,35.631
7050,3.840,1.625,1.558,0.000,5.727,0.000,0.000,35.698
7075,3.843,1.625,1.569,0.000,5.770,0.000,0.000,35.680
7100,3.846,1.625,1.580,0.000,5.814,0.000,0.000,35.657
7125,3.849,1.625,1.591,0.000,5.857,0.000,0.000,35.703
7150,3.852,1.625,1.603,0.000,5.901,0.000,0.000,35.664
7175,3.854,1.625,1.614,0.000,5.944,0.000,0.000,35.674
7200,3.857,1.625,1.625,0.000,5.988,0.000,0.000,35.659
7225,3.860,1.625,1.637,0.000,6.031,0.000,0.000,35.709
7250,3.863,1.625,1.648,0.000,6.075,0.000,0.000,35.656
7275,3.866,1.625,1.659,0.000,6.118,0.000,0.000,35.662
7300,3.869,1.625,1.670,0.000,6.162,0.000,0.000,35.650
7325,3.872,1.625,1.682,0.000,6.206,0.000,0.000,35.664
7350,3.875,1.625,1.693,0.000,6.250,0.000,0.000,35.675
7375,3.878,1.625,1.704,0.000,6.293,0.000,0.000,35.717
7400,3.882,1.625,1.716,0.000,6.337,0.000,0.000,35.669
7425,3.885,1.625,1.727,0.000,6.381,0.000,0.000,35.688
7450,3.888,1.625,1.738,0.000,6.425,0.000,0.000,35.683
7475,3.891,1.625,1.749,0.000,6.469,0.000,0.000,35.691
7500,3.894,1.625,1.761,0.000,6.513,0.000,0.000,35.671
7525,3.897,1.625,1.772,0.000,6.557,0.000,0.000,35.679
7550,3.900,1.625,1.783,0.000,6.601,0.000,0.000,35.715
7575,3.903,1.625,1.795,0.000,6.645,0.000,0.000,35.672
7600,3.907,1.625,1.806,0.000,6.689,0.000,0.000,35.644
7625,3.910,1.625,1.817,0.000,6.733,0.000,0.000,35.687
7650,3.913,1.625,1.828,0.000,6.777,0.000,0.000,35.649
7675,3.916,1.625,1.840,0.000,6.821,0.000,0.000,35.692
7700,3.920,1.625,1.851,0.000,6.865,0.000,0.000,35.636
7725,3.923,1.625,1.862,0.000,6.910,0.000,0.000,35.676
7750,3.926,1.625,1.874,0.000,6.954,0.000,0.000,35.673
7775,3.929,1.625,1.885,0.000,6.998,0.000,0.000,35.700
7800,3.933,1.625,1.896,0.000,7.043,0.000,0.000,35.683
7825,3.936,1.625,1.907,0.000,7.087,0.000,0.000,35.638
7850,3.939,1.625,1.919,0.000,7.131,0.000,0.000,35.691
7875,3.942,1.625,1.930,0.000,7.176,0.000,0.000,35.695
7900,3.946,1.625,1.941,0.000,7.220,0.000,0.000,35.637
7925,3.949,1.625,1.953,0.000,7.265,0.000,0.000,35.650
7950,3.952,1.625,1.964,0.000,7.310,0.000,0.000,35.661
7975,3.955,1.625,1.975,0.000,7.354,0.000,0.000,35.627
8000,3.959,1.625,1.986,0.000,7.399,0.000,0.000,35.661
8025,3.962,1.625,1.998,0.000,7.444,0.000,0.000,35.666
8050,3.965,1.625,2.009,0.000,7.488,0.000,0.000,35.623
8075,3.968,1.625,2.020,0.000,7.533,0.000,0.000,35.653
8100,3.972,1.625,2.032,0.000,7.578,0.000,0.000,35.631
8125,3.975,1.625,2.043,0.000,7.623,0.000,0.000,35.621
8150,3.978,1.625,2.054,0.000,7.668,0.000,0.000,35.604
8175,3.981,1.625,2.065,0.000,7.712,0.000,0.000,35.635
8200,3.985,1.625,2.077,0.000,7.757,0.000,0.000,35.641
8225,3.988,1.625,2.088,0.000,7.802,0.000,0.000,35.628
8250,3.991,1.625,2.099,0.000,7.847,0.000,0.000,35.659
8275,3.994,1.625,2.111,0.000,7.893,0.000,0.000,35.636
8300,3.997,1.625,2.122,0.000,7.938,0.000,0.000,35.645
8325,4.000,1.625,2.133,0.000,7.983,0.000,0.000,35.581
8350,4.004,1.625,2.144,0.000,8.028,0.000,0.000,35.625
8375,4.007,1.625,2.156,0.000,8.073,0.000,0.000,35.586
8400,4.010,1.625,2.167,0.000,8.118,0.000,0.000,35.626
8425,4.013,1.625,2.178,0.000,8.164,0.000,0.000,35.580
8450,4.016,1.625,2.190,0.000,8.209,0.000,0.000,35.577
8475,4.019,1.625,2.201,0.000,8.254,0.000,0.000,35.543
8500,4.023,1.625,2.212,0.000,8.300,0.000,0.000,35.557
8525,4.026,1.625,2.223,0.000,8.345,0.000,0.000,35.642
8550,4.029,1.625,2.235,0.000,8.391,0.000,0.000,35.556
8575,4.032,1.625,2.246,0.000,8.436,0.000,0.000,35.570
8600,4.035,1.625,2.257,0.000,8.482,0.000,0.000,35.595
8625,4.038,1.625,2.269,0.000,8.527,0.000,0.000,35.556
8650,4.042,1.625,2.280,0.000,8.573,0.000,0.000,35.584
8675,4.045,1.625,2.291,0.000,8.618,0.000,0.000,35.590
8700,4.048,1.625,2.302,0.000,8.664,0.000,0.000,35.575
8725,4.051,1.625,2.314,0.000,8.710,0.000,0.000,35.562
8750,4.055,1.625,2.325,0.000,8.755,0.000,0.000,35.581
8775,4.058,1.625,2.336,0.000,8.801,0.000,0.000,35.588
8800,4.061,1.625,2.348,0.000,8.847,0.000,0.000,35.549
8825,4.065,1.625,2.359,0.000,8.893,0.000,0.000,35.617
8850,4.068,1.625,2.370,0.000,8.939,0.000,0.000,35.592
8875,4.071,1.625,2.381,0.000,8.985,0.000,0.000,35.589
8900,4.075,1.625,2.393,0.000,9.031,0.000,0.000,35.618
8925,4.078,1.625,2.404,0.000,9.077,0.000,0.000,35.611
8950,4.082,1.625,2.415,0.000,9.123,0.000,0.000,35.590
8975,4.085,1.625,2.427,0.000,9.169,0.000,0.000,35.677
9000,4.089,1.625,2.438,0.000,9.215,0.000,0.000,35.612
9025,4.093,1.625,2.449,0.000,9.261,0.000,0.000,35.632
9050,4.096,1.625,2.460,0.000,9.307,0.000,0.000,35.649
9075,4.100,1.625,2.472,0.000,9.354,0.000,0.000,35.619
9100,4.104,1.625,2.483,0.000,9.400,0.000,0.000,35.629
9125,4.108,1.625,2.494,0.000,9.446,0.000,0.000,35.639
9150,4.112,1.625,2.506,0.000,9.493,0.000,0.000,35.643
9175,4.116,1.625,2.517,0.000,9.539,0.000,0.000,35.675
9200,4.120,1.625,2.528,0.000,9.586,0.000,0.000,35.646
9225,4.124,1.625,2.539,0.000,9.632,0.000,0.000,35.667
9250,4.128,1.625,2.551,0.000,9.679,0.000,0.000,35.670
9275,4.132,1.625,2.562,0.000,9.725,0.000,0.000,35.686
9300,4.136,1.625,2.573,0.000,9.772,0.000,0.000,35.680
9325,4.140,1.625,2.585,0.000,9.819,0.000,0.000,35.684
9350,4.145,1.625,2.596,0.000,9.865,0.000,0.000,35.701
9375,4.149,1.625,2.607,0.000,9.912,0.000,0.000,35.647
9400,4.154,1.625,2.618,0.000,9.959,0.000,0.000,35.754
9425,4.158,1.625,2.630,0.000,10.006,0.000,0.000,35.741
9450,4.162,1.625,2.641,0.000,10.053,0.000,0.000,35.737
9475,4.167,1.625,2.652,0.000,10.100,0.000,0.000,35.758
9500,4.171,1.625,2.664,0.000,10.147,0.000,0.000,35.722
9525,4.176,1.625,2.675,0.000,10.194,0.000,0.000,35.766
9550,4.180,1.625,2.686,0.000,10.241,0.000,0.000,35.745
9575,4.185,1.625,2.697,0.000,10.288,0.000,0.000,35.735
9600,4.190,1.625,2.709,0.000,10.336,0.000,0.000,35.731
9625,4.194,1.625,2.720,0.000,10.383,0.000,0.000,35.825
9650,4.199,1.625,2.731,0.000,10.430,0.000,0.000,35.790
9675,4.200,1.576,2.742,0.000,10.477,0.000,0.000,35.763
9700,4.200,1.521,2.753,0.000,10.522,0.000,0.000,35.795
9725,4.200,1.477,2.763,0.000,10.565,0.000,0.000,35.800
9750,4.200,1.434,2.774,0.000,10.608,0.000,0.000,35.772
9775,4.200,1.396,2.783,0.000,10.649,0.000,0.000,35.796
9800,4.200,1.361,2.793,0.000,10.689,0.000,0.000,35.810
9825,4.200,1.327,2.802,0.000,10.728,0.000,0.000,35.697
9850,4.200,1.293,2.811,0.000,10.767,0.000,0.000,35.703
9875,4.200,1.263,2.820,0.000,10.804,0.000,0.000,35.665
9900,4.200,1.233,2.829,0.000,10.840,0.000,0.000,35.641
9925,4.200,1.204,2.837,0.000,10.876,0.000,0.000,35.666
9950,4.200,1.176,2.846,0.000,10.910,0.000,0.000,35.596
9975,4.200,1.149,2.854,0.000,10.944,0.000,0.000,35.588
10000,4.200,1.124,2.862,0.000,10.977,0.000,0.000,35.545
10025,4.200,1.098,2.869,0.000,11.010,0.000,0.000,35.521
10050,4.200,1.074,2.877,0.000,11.042,0.000,0.000,35.486
10075,4.200,1.052,2.884,0.000,11.073,0.000,0.000,35.486
10100,4.200,1.029,2.891,0.000,11.103,0.000,0.000,35.404
10125,4.200,1.008,2.898,0.000,11.133,0.000,0.000,35.446
10150,4.200,0.987,2.905,0.000,11.162,0.000,0.000,35.379
10175,4.200,0.968,2.912,0.000,11.190,0.000,0.000,35.344
10200,4.200,0.949,2.919,0.000,11.218,0.000,0.000,35.321
10225,4.200,0.930,2.925,0.000,11.246,0.000,0.000,35.295
10250,4.200,0.912,2.932,0.000,11.272,0.000,0.000,35.267
10275,4.200,0.894,2.938,0.000,11.299,0.000,0.000,35.246
10300,4.200,0.877,2.944,0.000,11.325,0.000,0.000,35.233
10325,4.200,0.861,2.950,0.000,11.350,0.000,0.000,35.194
10350,4.200,0.844,2.956,0.000,11.375,0.000,0.000,35.198
10375,4.200,0.829,2.962,0.000,11.399,0.000,0.000,35.166
10400,4.200,0.814,2.968,0.000,11.423,0.000,0.000,35.156
10425,4.200,0.798,2.973,0.000,11.447,0.000,0.000,35.084
10450,4.200,0.783,2.979,0.000,11.470,0.000,0.000,35.108
10475,4.200,0.769,2.984,0.000,11.492,0.000,0.000,35.071
10500,4.200,0.755,2.989,0.000,11.514,0.000,0.000,35.046
10525,4.200,0.741,2.995,0.000,11.536,0.000,0.000,35.016
10550,4.200,0.727,3.000,0.000,11.558,0.000,0.000,35.021
10575,4.200,0.714,3.005,0.000,11.579,0.000,0.000,34.997
10600,4.200,0.700,3.010,0.000,11.599,0.000,0.000,34.965
10625,4.200,0.688,3.014,0.000,11.620,0.000,0.000,34.976
10650,4.200,0.675,3.019,0.000,11.639,0.000,0.000,34.930
10675,4.200,0.662,3.024,0.000,11.659,0.000,0.000,34.926
10700,4.200,0.650,3.028,0.000,11.678,0.000,0.000,34.885
10725,4.200,0.637,3.033,0.000,11.697,0.000,0.000,34.906
10750,4.200,0.625,3.037,0.000,11.715,0.000,0.000,34.912
10775,4.200,0.613,3.042,0.000,11.733,0.000,0.000,34.877
10800,4.200,0.601,3.046,0.000,11.751,0.000,0.000,34.860
10825,4.200,0.589,3.050,0.000,11.768,0.000,0.000,34.817
10850,4.200,0.577,3.054,0.000,11.785,0.000,0.000,34.831
10875,4.200,0.566,3.058,0.000,11.802,0.000,0.000,34.842
10900,4.200,0.555,3.062,0.000,11.818,0.000,0.000,34.766
10925,4.200,0.543,3.066,0.000,11.834,0.000,0.000,34.776
10950,4.200,0.532,3.069,0.000,11.850,0.000,0.000,34.747
10975,4.200,0.521,3.073,0.000,11.865,0.000,0.000,34.728
11000,4.200,0.511,3.077,0.000,11.880,0.000,0.000,34.690
11025,4.200,0.500,3.080,0.000,11.895,0.000,0.000,34.756
11050,4.200,0.490,3.083,0.000,11.910,0.000,0.000,34.698
11075,4.200,0.480,3.087,0.000,11.924,0.000,0.000,34.686
11100,4.200,0.469,3.090,0.000,11.937,0.000,0.000,34.667
11125,4.200,0.459,3.093,0.000,11.951,0.000,0.000,34.679
11150,4.200,0.449,3.097,0.000,11.964,0.000,0.000,34.607
11175,4.200,0.439,3.100,0.000,11.977,0.000,0.000,34.659
11200,4.200,0.429,3.103,0.000,11.990,0.000,0.000,34.604
11225,4.200,0.420,3.106,0.000,12.002,0.000,0.000,34.610
11250,4.200,0.411,3.108,0.000,12.014,0.000,0.000,34.621
11275,4.200,0.402,3.111,0.000,12.026,0.000,0.000,34.603
11300,4.200,0.393,3.114,0.000,12.038,0.000,0.000,34.604
11325,4.200,0.384,3.117,0.000,12.049,0.000,0.000,34.595
11350,4.200,0.375,3.119,0.000,12.060,0.000,0.000,34.581
11375,4.200,0.367,3.122,0.000,12.071,0.000,0.000,34.577
11400,4.200,0.358,3.124,0.000,12.082,0.000,0.000,34.533
11425,4.200,0.350,3.127,0.000,12.092,0.000,0.000,34.535
11450,4.200,0.342,3.129,0.000,12.102,0.000,0.000,34.560
11475,4.200,0.335,3.132,0.000,12.112,0.000,0.000,34.507
11500,4.200,0.326,3.134,0.000,12.122,0.000,0.000,34.492
11525,4.200,0.318,3.136,0.000,12.131,0.000,0.000,34.511
11550,4.200,0.311,3.138,0.000,12.140,0.000,0.000,34.535
11575,4.200,0.303,3.141,0.000,12.149,0.000,0.000,34.502
11600,4.200,0.296,3.143,0.000,12.158,0.000,0.000,34.467
11625,4.200,0.289,3.145,0.000,12.166,0.000,0.000,34.494
11650,4.200,0.282,3.147,0.000,12.175,0.000,0.000,34.508
11675,4.200,0.275,3.149,0.000,12.183,0.000,0.000,34.470
11700,4.200,0.268,3.150,0.000,12.191,0.000,0.000,34.514
11725,4.200,0.262,3.152,0.000,12.198,0.000,0.000,34.448
11750,4.200,0.255,3.154,0.000,12.206,0.000,0.000,34.450
11775,4.200,0.250,3.156,0.000,12.213,0.000,0.000,34.435
11800,4.200,0.243,3.158,0.000,12.221,0.000,0.000,34.444
11825,4.200,0.237,3.159,0.000,12.228,0.000,0.000,34.433
11850,4.200,0.232,3.161,0.000,12.234,0.000,0.000,34.438
11875,4.200,0.226,3.162,0.000,12.241,0.000,0.000,34.381
11900,4.200,0.220,3.164,0.000,12.248,0.000,0.000,34.410
11925,4.200,0.215,3.165,0.000,12.254,0.000,0.000,34.379
11950,4.200,0.210,3.167,0.000,12.260,0.000,0.000,34.392
11975,4.200,0.205,3.168,0.000,12.266,0.000,0.000,34.379
12000,4.200,0.200,3.170,0.000,12.272,0.000,0.000,34.391
12025,4.200,0.194,3.171,0.000,12.278,0.000,0.000,34.374
12050,4.200,0.189,3.173,0.000,12.283,0.000,0.000,34.380
12075,4.200,0.184,3.174,0.000,12.289,0.000,0.000,34.395
12100,4.200,0.180,3.175,0.000,12.294,0.000,0.000,34.381
12125,4.200,0.176,3.176,0.000,12.299,0.000,0.000,34.318
12150,4.200,0.172,3.178,0.000,12.304,0.000,0.000,34.390
12175,4.200,0.167,3.179,0.000,12.309,0.000,0.000,34.374
12200,4.200,0.164,3.180,0.000,12.314,0.000,0.000,34.384
12225,4.200,0.159,3.181,0.000,12.319,0.000,0.000,34.349
12250,4.200,0.155,3.182,0.000,12.323,0.000,0.000,34.364
12275,4.200,0.152,3.183,0.000,12.328,0.000,0.000,34.326
12300,4.200,0.148,3.184,0.000,12.332,0.000,0.000,34.348
12325,4.200,0.145,3.185,0.000,12.337,0.000,0.000,34.317
12350,4.200,0.141,3.186,0.000,12.341,0.000,0.000,34.367
12375,4.200,0.137,3.187,0.000,12.345,0.000,0.000,34.343
12400,4.200,0.133,3.188,0.000,12.349,0.000,0.000,34.330
12425,4.200,0.130,3.189,0.000,12.353,0.000,0.000,34.358
12450,4.200,0.128,3.190,0.000,12.356,0.000,0.000,34.337
12475,4.200,0.124,3.191,0.000,12.360,0.000,0.000,34.298
12500,4.200,0.122,3.192,0.000,12.364,0.000,0.000,34.325
12525,4.200,0.118,3.192,0.000,12.367,0.000,0.000,34.335
12550,4.200,0.116,3.193,0.000,12.370,0.000,0.000,34.313
12575,4.200,0.113,3.194,0.000,12.374,0.000,0.000,34.322
12600,4.200,0.110,3.195,0.000,12.377,0.000,0.000,34.307
12625,4.200,0.107,3.196,0.000,12.380,0.000,0.000,34.283
12650,4.200,0.105,3.196,0.000,12.383,0.000,0.000,34.337
12675,4.200,0.102,3.197,0.000,12.386,0.000,0.000,34.299
12700,4.200,0.100,3.198,0.000,12.389,0.000,0.000,34.300
12725,4.200,0.098,3.198,0.000,12.392,0.000,0.000,34.274
12750,4.200,0.095,3.199,0.000,12.395,0.000,0.000,34.243
12775,4.200,0.094,3.200,0.000,12.398,0.000,0.000,34.282
12800,4.200,0.091,3.200,0.000,12.400,0.000,0.000,34.285
12825,4.200,0.089,3.201,0.000,12.403,0.000,0.000,34.306
12850,4.200,0.087,3.202,0.000,12.406,0.000,0.000,34.287
12875,4.200,0.085,3.202,0.000,12.408,0.000,0.000,34.309
12900,4.200,0.083,3.203,0.000,12.411,0.000,0.000,34.328
12925,4.200,0.081,3.203,0.000,12.413,0.000,0.000,34.302
12950,4.200,0.080,3.204,0.000,12.415,0.000,0.000,34.238
12975,4.200,0.078,3.204,0.000,12.418,0.000,0.000,34.272
13000,4.200,0.076,3.205,0.000,12.420,0.000,0.000,34.268
13025,4.200,0.074,3.206,0.000,12.422,0.000,0.000,34.274
13050,4.200,0.073,3.206,0.000,12.424,0.000,0.000,34.271
13075,4.200,0.071,3.207,0.000,12.426,0.000,0.000,34.294
13100,4.200,0.070,3.207,0.000,12.428,0.000,0.000,34.221
13125,4.200,0.068,3.207,0.000,12.430,0.000,0.000,34.240
13150,4.200,0.066,3.208,0.000,12.432,0.000,0.000,34.271
13174,4.195,0.000,3.208,0.000,12.433,0.000,0.000,34.275
13199,4.194,0.000,3.208,0.000,12.433,0.000,0.000,34.247
13224,4.194,0.000,3.208,0.000,12.433,0.000,0.000,34.230
13249,4.193,0.000,3.208,0.000,12.433,0.000,0.000,34.240
13274,4.193,0.000,3.208,0.000,12.433,0.000,0.000,34.246
13299,4.192,0.000,3.208,0.000,12.433,0.000,0.000,34.238
13324,4.192,0.000,3.208,0.000,12.433,0.000,0.000,34.289
13349,4.192,0.000,3.208,0.000,12.433,0.000,0.000,34.251
13374,4.192,0.000,3.208,0.000,12.433,0.000,0.000,34.254
13399,4.191,0.000,3.208,0.000,12.433,0.000,0.000,34.252
13424,4.191,0.000,3.208,0.000,12.433,0.000,0.000,34.232
13449,4.191,0.000,3.208,0.000,12.433,0.000,0.000,34.251
13474,4.191,0.000,3.208,0.000,12.433,0.000,0.000,34.248
13499,4.190,0.000,3.208,0.000,12.433,0.000,0.000,34.255
13524,4.190,0.000,3.208,0.000,12.433,0.000,0.000,34.267
13549,4.190,0.000,3.208,0.000,12.433,0.000,0.000,34.233
13574,4.190,0.000,3.208,0.000,12.433,0.000,0.000,34.247
13599,4.190,0.000,3.208,0.000,12.433,0.000,0.000,34.265
13624,4.189,0.000,3.208,0.000,12.433,0.000,0.000,34.224
13649,4.189,0.000,3.208,0.000,12.433,0.000,0.000,34.247
13674,4.189,0.000,3.208,0.000,12.433,0.000,0.000,34.240
13699,4.189,0.000,3.208,0.000,12.433,0.000,0.000,34.251
13724,4.189,0.000,3.208,0.000,12.433,0.000,0.000,34.252
13749,4.189,0.000,3.208,0.000,12.433,0.000,0.000,34.245
13774,4.188,0.000,3.208,0.000,12.433,0.000,0.000,34.250
13799,4.188,0.000,3.208,0.000,12.433,0.000,0.000,34.237
13824,4.188,0.000,3.208,0.000,12.433,0.000,0.000,34.203
13849,4.188,0.000,3.208,0.000,12.433,0.000,0.000,34.243
13874,4.188,0.000,3.208,0.000,12.433,0.000,0.000,34.222
13899,4.188,0.000,3.208,0.000,12.433,0.000,0.000,34.236
13924,4.188,0.000,3.208,0.000,12.433,0.000,0.000,34.250
13949,4.188,0.000,3.208,0.000,12.433,0.000,0.000,34.223
13974,4.187,0.000,3.208,0.000,12.433,0.000,0.000,34.190
13999,4.187,0.000,3.208,0.000,12.433,0.000,0.000,34.191
14024,4.187,0.000,3.208,0.000,12.433,0.000,0.000,34.182
14049,4.187,0.000,3.208,0.000,12.433,0.000,0.000,34.212
14074,4.187,0.000,3.208,0.000,12.433,0.000,0.000,34.225
14099,4.187,0.000,3.208,0.000,12.433,0.000,0.000,34.184
14124,4.187,0.000,3.208,0.000,12.433,0.000,0.000,34.242
14149,4.187,0.000,3.208,0.000,12.433,0.000,0.000,34.223
14174,4.187,0.000,3.208,0.000,12.433,0.000,0.000,34.174
14199,4.187,0.000,3.208,0.000,12.433,0.000,0.000,34.222
14224,4.186,0.000,3.208,0.000,12.433,0.000,0.000,34.206
14249,4.186,0.000,3.208,0.000,12.433,0.000,0.000,34.237
14274,4.186,0.000,3.208,0.000,12.433,0.000,0.000,34.207
14299,4.186,0.000,3.208,0.000,12.433,0.000,0.000,34.259
14324,4.186,0.000,3.208,0.000,12.433,0.000,0.000,34.225
14349,4.186,0.000,3.208,0.000,12.433,0.000,0.000,34.230
14374,4.186,0.000,3.208,0.000,12.433,0.000,0.000,34.201
14399,4.186,0.000,3.208,0.000,12.433,0.000,0.000,34.224
14424,4.186,0.000,3.208,0.000,12.433,0.000,0.000,34.217
14449,4.186,0.000,3.208,0.000,12.433,0.000,0.000,34.211
14474,4.186,0.000,3.208,0.000,12.433,0.000,0.000,34.217
14499,4.186,0.000,3.208,0.000,12.433,0.000,0.000,34.233
14524,4.185,0.000,3.208,0.000,12.433,0.000,0.000,34.224
14549,4.185,0.000,3.208,0.000,12.433,0.000,0.000,34.189
14574,4.185,0.000,3.208,0.000,12.433,0.000,0.000,34.239
14599,4.185,0.000,3.208,0.000,12.433,0.000,0.000,34.224
14624,4.185,0.000,3.208,0.000,12.433,0.000,0.000,34.202
14649,4.185,0.000,3.208,0.000,12.433,0.000,0.000,34.213
14674,4.185,0.000,3.208,0.000,12.433,0.000,0.000,34.210
14699,4.185,0.000,3.208,0.000,12.433,0.000,0.000,34.249
14724,4.185,0.000,3.208,0.000,12.433,0.000,0.000,34.219
14749,4.185,0.000,3.208,0.000,12.433,0.000,0.000,34.202
14774,4.185,0.000,3.208,0.000,12.433,0.000,0.000,34.213
14799,4.185,0.000,3.208,0.000,12.433,0.000,0.000,34.206
14824,4.185,0.000,3.208,0.000,12.433,0.000,0.000,34.225
14849,4.185,0.000,3.208,0.000,12.433,0.000,0.000,34.213
14874,4.185,0.000,3.208,0.000,12.433,0.000,0.000,34.191
14899,4.184,0.000,3.208,0.000,12.433,0.000,0.000,34.237
14924,4.184,0.000,3.208,0.000,12.433,0.000,0.000,34.187
14949,4.184,0.000,3.208,0.000,12.433,0.000,0.000,34.213
14974,4.184,0.000,3.208,0.000,12.433,0.000,0.000,34.200
14999,4.184,0.000,3.208,0.000,12.433,0.000,0.000,34.233
15024,4.184,0.000,3.208,0.000,12.433,0.000,0.000,34.227
15049,4.184,0.000,3.208,0.000,12.433,0.000,0.000,34.212
15074,4.184,0.000,3.208,0.000,12.433,0.000,0.000,34.167
15099,4.184,0.000,3.208,0.000,12.433,0.000,0.000,34.198
15124,4.184,0.000,3.208,0.000,12.433,0.000,0.000,34.224
15149,4.184,0.000,3.208,0.000,12.433,0.000,0.000,34.187
15174,4.184,0.000,3.208,0.000,12.433,0.000,0.000,34.226
15199,4.184,0.000,3.208,0.000,12.433,0.000,0.000,34.230
15224,4.184,0.000,3.208,0.000,12.433,0.000,0.000,34.235
15249,4.184,0.000,3.208,0.000,12.433,0.000,0.000,34.200
15274,4.184,0.000,3.208,0.000,12.433,0.000,0.000,34.235
15299,4.184,0.000,3.208,0.000,12.433,0.000,0.000,34.219
15324,4.184,0.000,3.208,0.000,12.433,0.000,0.000,34.220
15349,4.183,0.000,3.208,0.000,12.433,0.000,0.000,34.242
15374,4.183,0.000,3.208,0.000,12.433,0.000,0.000,34.254
15399,4.183,0.000,3.208,0.000,12.433,0.000,0.000,34.243
15424,4.183,0.000,3.208,0.000,12.433,0.000,0.000,34.193
15449,4.183,0.000,3.208,0.000,12.433,0.000,0.000,34.227
15474,4.183,0.000,3.208,0.000,12.433,0.000,0.000,34.205
15499,4.183,0.000,3.208,0.000,12.433,0.000,0.000,34.229
15524,4.183,0.000,3.208,0.000,12.433,0.000,0.000,34.246
15549,4.183,0.000,3.208,0.000,12.433,0.000,0.000,34.205
15574,4.183,0.000,3.208,0.000,12.433,0.000,0.000,34.213
15599,4.183,0.000,3.208,0.000,12.433,0.000,0.000,34.216
15624,4.183,0.000,3.208,0.000,12.433,0.000,0.000,34.208
15649,4.183,0.000,3.208,0.000,12.433,0.000,0.000,34.224
15674,4.183,0.000,3.208,0.000,12.433,0.000,0.000,34.252
15699,4.183,0.000,3.208,0.000,12.433,0.000,0.000,34.210
15724,4.183,0.000,3.208,0.000,12.433,0.000,0.000,34.215
15749,4.183,0.000,3.208,0.000,12.433,0.000,0.000,34.220
15774,4.183,0.000,3.208,0.000,12.433,0.000,0.000,34.202
15799,4.183,0.000,3.208,0.000,12.433,0.000,0.000,34.218
15824,4.183,0.000,3.208,0.000,12.433,0.000,0.000,34.237
15849,4.183,0.000,3.208,0.000,12.433,0.000,0.000,34.200
15874,4.183,0.000,3.208,0.000,12.433,0.000,0.000,34.182
15899,4.183,0.000,3.208,0.000,12.433,0.000,0.000,34.183
15924,4.183,0.000,3.208,0.000,12.433,0.000,0.000,34.212
15949,4.183,0.000,3.208,0.000,12.433,0.000,0.000,34.179
15974,4.183,0.000,3.208,0.000,12.433,0.000,0.000,34.219
15999,4.183,0.000,3.208,0.000,12.433,0.000,0.000,34.198
16024,4.182,0.000,3.208,0.000,12.433,0.000,0.000,34.227
16049,4.182,0.000,3.208,0.000,12.433,0.000,0.000,34.179
16074,4.182,0.000,3.208,0.000,12.433,0.000,0.000,34.222
16099,4.182,0.000,3.208,0.000,12.433,0.000,0.000,34.215
16124,4.182,0.000,3.208,0.000,12.433,0.000,0.000,34.158
16149,4.182,0.000,3.208,0.000,12.433,0.000,0.000,34.197
16174,4.182,0.000,3.208,0.000,12.433,0.000,0.000,34.220
16199,4.182,0.000,3.208,0.000,12.433,0.000,0.000,34.182
16224,4.182,0.000,3.208,0.000,12.433,0.000,0.000,34.218
16249,4.182,0.000,3.208,0.000,12.433,0.000,0.000,34.218
16274,4.182,0.000,3.208,0.000,12.433,0.000,0.000,34.185
16299,4.182,0.000,3.208,0.000,12.433,0.000,0.000,34.233
16324,4.182,0.000,3.208,0.000,12.433,0.000,0.000,34.239
16349,4.182,0.000,3.208,0.000,12.433,0.000,0.000,34.191
16374,4.182,0.000,3.208,0.000,12.433,0.000,0.000,34.191
16399,4.182,0.000,3.208,0.000,12.433,0.000,0.000,34.257
16424,4.182,0.000,3.208,0.000,12.433,0.000,0.000,34.186
16449,4.182,0.000,3.208,0.000,12.433,0.000,0.000,34.214
16474,4.182,0.000,3.208,0.000,12.433,0.000,0.000,34.249
16499,4.182,0.000,3.208,0.000,12.433,0.000,0.000,34.240
16524,4.182,0.000,3.208,0.000,12.433,0.000,0.000,34.253
16549,4.182,0.000,3.208,0.000,12.433,0.000,0.000,34.243
16574,4.182,0.000,3.208,0.000,12.433,0.000,0.000,34.239
16599,4.182,0.000,3.208,0.000,12.433,0.000,0.000,34.200
16624,4.181,0.000,3.208,0.000,12.433,0.000,0.000,34.217
16649,4.182,0.000,3.208,0.000,12.433,0.000,0.000,34.221
16674,4.182,0.000,3.208,0.000,12.433,0.000,0.000,34.184
16699,4.182,0.000,3.208,0.000,12.433,0.000,0.000,34.201
16724,4.182,0.000,3.208,0.000,12.433,0.000,0.000,34.257
16749,4.182,0.000,3.208,0.000,12.433,0.000,0.000,34.213
16773,3.712,-6.696,3.208,0.015,12.433,0.056,-0.004,34.288
16798,3.663,-6.696,3.208,0.061,12.433,0.227,-0.001,34.873
16823,3.639,-6.699,3.208,0.108,12.433,0.397,-0.001,35.644
16848,3.623,-6.699,3.208,0.154,12.433,0.565,-0.001,36.392
16873,3.609,-6.698,3.208,0.201,12.433,0.734,-0.001,37.071
16898,3.595,-6.699,3.208,0.247,12.433,0.901,0.000,37.760
16923,3.581,-6.699,3.208,0.294,12.433,1.068,-0.001,38.266
16948,3.567,-6.699,3.208,0.341,12.433,1.234,-0.001,38.769
16973,3.552,-6.699,3.208,0.387,12.433,1.400,-0.001,39.316
16998,3.536,-6.699,3.208,0.434,12.433,1.565,-0.001,39.736
17023,3.520,-6.699,3.208,0.480,12.433,1.729,-0.001,40.164
17048,3.504,-6.699,3.208,0.527,12.433,1.892,-0.001,40.498
17073,3.488,-6.699,3.208,0.573,12.433,2.055,-0.001,40.828
17098,3.472,-6.700,3.208,0.620,12.433,2.217,-0.001,41.142
17123,3.456,-6.699,3.208,0.666,12.433,2.378,-0.001,41.441
17148,3.440,-6.699,3.208,0.713,12.433,2.538,-0.001,41.769
17173,3.425,-6.700,3.208,0.759,12.433,2.698,-0.001,41.900
17198,3.409,-6.699,3.208,0.806,12.433,2.857,-0.001,42.234
17223,3.394,-6.700,3.208,0.852,12.433,3.015,0.000,42.375
17248,3.378,-6.700,3.208,0.899,12.433,3.173,-0.001,42.575
17273,3.363,-6.700,3.208,0.945,12.433,3.330,-0.001,42.911
17298,3.347,-6.699,3.208,0.992,12.433,3.486,-0.001,43.045
17323,3.332,-6.700,3.208,1.038,12.433,3.641,-0.001,43.268
17348,3.316,-6.700,3.208,1.085,12.433,3.796,-0.001,43.598
17373,3.301,-6.700,3.208,1.131,12.433,3.950,0.000,43.807
17398,3.286,-6.700,3.208,1.178,12.433,4.103,-0.001,43.979
17423,3.271,-6.700,3.208,1.224,12.433,4.255,-0.001,44.136
17448,3.256,-6.700,3.208,1.271,12.433,4.407,-0.001,44.395
17473,3.240,-6.700,3.208,1.318,12.433,4.558,-0.001,44.506
17498,3.226,-6.700,3.208,1.364,12.433,4.709,-0.001,44.744
17523,3.211,-6.700,3.208,1.411,12.433,4.859,-0.001,44.845
17548,3.196,-6.700,3.208,1.457,12.433,5.008,-0.001,45.002
17573,3.182,-6.700,3.208,1.504,12.433,5.156,-0.001,45.335
17598,3.167,-6.701,3.208,1.550,12.433,5.304,-0.001,45.308
17623,3.154,-6.700,3.208,1.597,12.433,5.451,-0.001,45.546
17648,3.140,-6.701,3.208,1.643,12.433,5.597,0.000,45.761
17673,3.127,-6.701,3.208,1.690,12.433,5.743,-0.001,45.756
17698,3.114,-6.701,3.208,1.736,12.433,5.888,-0.001,45.916
17723,3.100,-6.701,3.208,1.783,12.433,6.033,-0.001,46.160
17748,3.088,-6.701,3.208,1.829,12.433,6.177,-0.001,46.304
17773,3.075,-6.701,3.208,1.876,12.433,6.320,-0.001,46.568
17798,3.062,-6.701,3.208,1.922,12.433,6.463,-0.001,46.815
17823,3.049,-6.701,3.208,1.969,12.433,6.605,0.000,46.809
17848,3.036,-6.701,3.208,2.015,12.433,6.747,-0.001,46.973
17873,3.023,-6.701,3.208,2.062,12.433,6.888,-0.001,47.157
17898,3.010,-6.701,3.208,2.109,12.433,7.028,-0.001,47.374
17923,2.996,-6.701,3.208,2.155,12.433,7.168,-0.001,47.568
17948,2.982,-6.702,3.208,2.202,12.433,7.307,-0.001,47.766
17973,2.968,-6.702,3.208,2.248,12.433,7.445,-0.001,47.931
17998,2.953,-6.702,3.208,2.295,12.433,7.583,0.000,48.002
18023,2.938,-6.702,3.208,2.341,12.433,7.720,-0.001,48.265
18048,2.923,-6.702,3.208,2.388,12.433,7.857,-0.001,48.419
18073,2.907,-6.701,3.208,2.434,12.433,7.992,-0.001,48.666
18098,2.890,-6.702,3.208,2.481,12.433,8.127,-0.001,48.893
18123,2.873,-6.702,3.208,2.527,12.433,8.261,-0.001,49.143
18148,2.855,-6.702,3.208,2.574,12.433,8.395,-0.001,49.249
18173,2.836,-6.702,3.208,2.621,12.433,8.527,-0.001,49.518
18198,2.817,-6.702,3.208,2.667,12.433,8.659,-0.001,49.764
18223,2.796,-6.702,3.208,2.714,12.433,8.789,-0.001,50.005
18248,2.775,-6.703,3.208,2.760,12.433,8.919,-0.001,50.199
18273,2.752,-6.703,3.208,2.807,12.433,9.048,-0.001,50.295
18298,2.728,-6.703,3.208,2.853,12.433,9.175,-0.001,50.505
18323,2.702,-6.703,3.208,2.900,12.433,9.302,-0.001,50.874
18348,2.672,-6.703,3.208,2.946,12.433,9.427,-0.001,51.220
18373,2.640,-6.704,3.208,2.993,12.433,9.550,-0.002,51.491
18398,2.601,-6.704,3.208,3.039,12.433,9.672,-0.002,51.856
18423,2.555,-6.704,3.208,3.086,12.433,9.792,-0.002,52.368
18448,3.026,0.000,3.208,3.130,12.433,9.903,0.506,52.703
18473,3.192,0.000,3.208,3.130,12.433,9.903,0.003,52.294
18498,3.245,0.000,3.208,3.130,12.433,9.903,0.002,51.065
18523,3.272,0.000,3.208,3.130,12.433,9.903,0.001,50.042
18548,3.287,0.000,3.208,3.130,12.433,9.903,0.001,49.038
18573,3.297,0.000,3.208,3.130,12.433,9.903,0.000,47.703
18598,3.303,0.000,3.208,3.130,12.433,9.903,0.000,46.792
18623,3.307,0.000,3.208,3.130,12.433,9.903,0.000,45.869
18648,3.310,0.000,3.208,3.130,12.433,9.903,0.000,45.010
18673,3.312,0.000,3.208,3.130,12.433,9.903,0.000,44.281
18698,3.314,0.000,3.208,3.130,12.433,9.903,0.000,43.639
18723,3.315,0.000,3.208,3.130,12.433,9.903,0.000,42.959
18748,3.316,0.000,3.208,3.130,12.433,9.903,0.000,42.344
18773,3.317,0.000,3.208,3.130,12.433,9.903,0.000,41.749
18798,3.318,0.000,3.208,3.130,12.433,9.903,0.000,41.276
18823,3.319,0.000,3.208,3.130,12.433,9.903,0.000,40.826
18848,3.319,0.000,3.208,3.130,12.433,9.903,0.000,40.384
18873,3.320,0.000,3.208,3.130,12.433,9.903,0.000,39.937
18898,3.320,0.000,3.208,3.130,12.433,9.903,0.000,39.536
18923,3.320,0.000,3.208,3.130,12.433,9.903,0.000,39.192
18948,3.321,0.000,3.208,3.130,12.433,9.903,0.000,38.865
18973,3.321,0.000,3.208,3.130,12.433,9.903,0.000,38.654
18998,3.321,0.000,3.208,3.130,12.433,9.903,0.000,38.340
19023,3.321,0.000,3.208,3.130,12.433,9.903,0.000,38.078
19048,3.321,0.000,3.208,3.130,12.433,9.903,0.000,37.826
19073,3.322,0.000,3.208,3.130,12.433,9.903,0.000,37.589
19098,3.322,0.000,3.208,3.130,12.433,9.903,0.000,37.446
19123,3.322,0.000,3.208,3.130,12.433,9.903,0.000,37.199
19148,3.322,0.000,3.208,3.130,12.433,9.903,0.000,37.046
19173,3.322,0.000,3.208,3.130,12.433,9.903,0.000,36.861
19198,3.322,0.000,3.208,3.130,12.433,9.903,0.000,36.712
19223,3.322,0.000,3.208,3.130,12.433,9.903,0.000,36.544
19248,3.322,0.000,3.208,3.130,12.433,9.903,0.000,36.367
19273,3.322,0.000,3.208,3.130,12.433,9.903,0.000,36.287
19298,3.322,0.000,3.208,3.130,12.433,9.903,0.000,36.177
19323,3.322,0.000,3.208,3.130,12.433,9.903,0.000,36.054
19348,3.322,0.000,3.208,3.130,12.433,9.903,0.000,35.932
19373,3.323,0.000,3.208,3.130,12.433,9.903,0.000,35.852
19398,3.322,0.000,3.208,3.130,12.433,9.903,0.000,35.721
19423,3.323,0.000,3.208,3.130,12.433,9.903,0.000,35.685
19448,3.323,0.000,3.208,3.130,12.433,9.903,0.000,35.575
19473,3.323,0.000,3.208,3.130,12.433,9.903,0.000,35.472
19498,3.323,0.000,3.208,3.130,12.433,9.903,0.000,35.452
19523,3.323,0.000,3.208,3.130,12.433,9.903,0.000,35.369
19548,3.323,0.000,3.208,3.130,12.433,9.903,0.000,35.268
19573,3.323,0.000,3.208,3.130,12.433,9.903,0.000,35.244
19598,3.323,0.000,3.208,3.130,12.433,9.903,0.000,35.209
19623,3.323,0.000,3.208,3.130,12.433,9.903,0.000,35.121
19648,3.323,0.000,3.208,3.130,12.433,9.903,0.000,35.058
19673,3.323,0.000,3.208,3.130,12.433,9.903,0.000,35.064
19698,3.323,0.000,3.208,3.130,12.433,9.903,0.000,34.981
19723,3.323,0.000,3.208,3.130,12.433,9.903,0.000,34.958
19748,3.323,0.000,3.208,3.130,12.433,9.903,0.000,34.933
19773,3.323,0.000,3.208,3.130,12.433,9.903,0.000,34.885
19798,3.323,0.000,3.208,3.130,12.433,9.903,0.000,34.868
19823,3.323,0.000,3.208,3.130,12.433,9.903,0.000,34.815
19848,3.323,0.000,3.208,3.130,12.433,9.903,0.000,34.786
19873,3.323,0.000,3.208,3.130,12.433,9.903,0.000,34.744
19898,3.323,0.000,3.208,3.130,12.433,9.903,0.000,34.679
19923,3.323,0.000,3.208,3.130,12.433,9.903,0.000,34.694
19948,3.323,0.000,3.208,3.130,12.433,9.903,0.000,34.674
19973,3.323,0.000,3.208,3.130,12.433,9.903,0.000,34.642
19998,3.323,0.000,3.208,3.130,12.433,9.903,0.000,34.634
20023,3.323,0.000,3.208,3.130,12.433,9.903,0.000,34.620
20048,3.323,0.000,3.208,3.130,12.433,9.903,0.000,34.593
20073,3.323,0.000,3.208,3.130,12.433,9.903,0.000,34.540
20098,3.323,0.000,3.208,3.130,12.433,9.903,0.000,34.537
20123,3.323,0.000,3.208,3.130,12.433,9.903,0.000,34.529
20148,3.323,0.000,3.208,3.130,12.433,9.903,0.000,34.472
20173,3.323,0.000,3.208,3.130,12.433,9.903,0.000,34.518
20198,3.323,0.000,3.208,3.130,12.433,9.903,0.000,34.462
20223,3.323,0.000,3.208,3.130,12.433,9.903,0.000,34.464
20248,3.323,0.000,3.208,3.130,12.433,9.903,0.000,34.472
20273,3.323,0.000,3.208,3.130,12.433,9.903,0.000,34.444
20298,3.323,0.000,3.208,3.130,12.433,9.903,0.000,34.419
20323,3.323,0.000,3.208,3.130,12.433,9.903,0.000,34.436
20348,3.323,0.000,3.208,3.130,12.433,9.903,0.000,34.456
20373,3.323,0.000,3.208,3.130,12.433,9.903,0.000,34.409
20398,3.323,0.000,3.208,3.130,12.433,9.903,0.000,34.420
20423,3.323,0.000,3.208,3.130,12.433,9.903,0.000,34.398
20448,3.323,0.000,3.208,3.130,12.433,9.903,0.000,34.414
20473,3.323,0.000,3.208,3.130,12.433,9.903,0.000,34.380
20498,3.323,0.000,3.208,3.130,12.433,9.903,0.000,34.356
20523,3.323,0.000,3.208,3.130,12.433,9.903,0.000,34.383
20548,3.323,0.000,3.208,3.130,12.433,9.903,0.000,34.332
20573,3.323,0.000,3.208,3.130,12.433,9.903,0.000,34.342
20598,3.323,0.000,3.208,3.130,12.433,9.903,0.000,34.368
20623,3.323,0.000,3.208,3.130,12.433,9.903,0.000,34.322
20648,3.323,0.000,3.208,3.130,12.433,9.903,0.000,34.311
20673,3.323,0.000,3.208,3.130,12.433,9.903,0.000,34.329
20698,3.323,0.000,3.208,3.130,12.433,9.903,0.000,34.342
20723,3.323,0.000,3.208,3.130,12.433,9.903,0.000,34.289
20748,3.323,0.000,3.208,3.130,12.433,9.903,0.000,34.308
20773,3.323,0.000,3.208,3.130,12.433,9.903,0.000,34.314
20798,3.323,0.000,3.208,3.130,12.433,9.903,0.000,34.329
20823,3.323,0.000,3.208,3.130,12.433,9.903,0.000,34.331
20848,3.323,0.000,3.208,3.130,12.433,9.903,0.000,34.263
20873,3.323,0.000,3.208,3.130,12.433,9.903,0.000,34.344
20898,3.323,0.000,3.208,3.130,12.433,9.903,0.000,34.314
20923,3.323,0.000,3.208,3.130,12.433,9.903,0.000,34.291
20948,3.323,0.000,3.208,3.130,12.433,9.903,0.000,34.287
20973,3.323,0.000,3.208,3.130,12.433,9.903,0.000,34.317
20998,3.324,0.000,3.208,3.130,12.433,9.903,0.000,34.295
21023,3.323,0.000,3.208,3.130,12.433,9.903,0.000,34.226
21048,3.323,0.000,3.208,3.130,12.433,9.903,0.000,34.281
21073,3.323,0.000,3.208,3.130,12.433,9.903,0.000,34.310
21098,3.323,0.000,3.208,3.130,12.433,9.903,0.000,34.265
21123,3.323,0.000,3.208,3.130,12.433,9.903,0.000,34.286
21148,3.323,0.000,3.208,3.130,12.433,9.903,0.000,34.253
21173,3.324,0.000,3.208,3.130,12.433,9.903,0.000,34.258
21198,3.323,0.000,3.208,3.130,12.433,9.903,0.000,34.285
21223,3.323,0.000,3.208,3.130,12.433,9.903,0.000,34.244
21248,3.324,0.000,3.208,3.130,12.433,9.903,0.000,34.245
21273,3.323,0.000,3.208,3.130,12.433,9.903,0.000,34.282
21298,3.323,0.000,3.208,3.130,12.433,9.903,0.000,34.281
21323,3.323,0.000,3.208,3.130,12.433,9.903,0.000,34.274
21348,3.323,0.000,3.208,3.130,12.433,9.903,0.000,34.246
21373,3.323,0.000,3.208,3.130,12.433,9.903,0.000,34.271
21398,3.324,0.000,3.208,3.130,12.433,9.903,0.000,34.229
21423,3.323,0.000,3.208,3.130,12.433,9.903,0.000,34.276
21448,3.324,0.000,3.208,3.130,12.433,9.903,0.000,34.228
21473,3.324,0.000,3.208,3.130,12.433,9.903,0.000,34.257
21498,3.323,0.000,3.208,3.130,12.433,9.903,0.000,34.242
21523,3.324,0.000,3.208,3.130,12.433,9.903,0.000,34.259
21548,3.324,0.000,3.208,3.130,12.433,9.903,0.000,34.264
21573,3.323,0.000,3.208,3.130,12.433,9.903,0.000,34.251
21598,3.324,0.000,3.208,3.130,12.433,9.903,0.000,34.264
21623,3.323,0.000,3.208,3.130,12.433,9.903,0.000,34.232
21648,3.324,0.000,3.208,3.130,12.433,9.903,0.000,34.243
21673,3.324,0.000,3.208,3.130,12.433,9.903,0.000,34.278
21698,3.323,0.000,3.208,3.130,12.433,9.903,0.000,34.212
21723,3.324,0.000,3.208,3.130,12.433,9.903,0.000,34.219
21748,3.324,0.000,3.208,3.130,12.433,9.903,0.000,34.227
21773,3.324,0.000,3.208,3.130,12.433,9.903,0.000,34.253
21798,3.324,0.000,3.208,3.130,12.433,9.903,0.000,34.232
21823,3.324,0.000,3.208,3.130,12.433,9.903,0.000,34.230
21848,3.324,0.000,3.208,3.130,12.433,9.903,0.000,34.245
21873,3.324,0.000,3.208,3.130,12.433,9.903,0.000,34.279
21898,3.324,0.000,3.208,3.130,12.433,9.903,0.000,34.275
21923,3.324,0.000,3.208,3.130,12.433,9.903,0.000,34.225
21948,3.324,0.000,3.208,3.130,12.433,9.903,0.000,34.251
21973,3.324,0.000,3.208,3.130,12.433,9.903,0.000,34.216
21998,3.324,0.000,3.208,3.130,12.433,9.903,0.000,34.245
22023,3.324,0.000,3.208,3.130,12.433,9.903,0.000,34.250
22047,3.324,0.000,3.208,3.130,12.433,9.903,0.000,34.218