File: data/T35/2C/4.csv
time_s,voltage_v,current_a,chargecapacity_ah,dischargecapacity_ah,charge_energy_wh,discharge_energy_wh,voltagedot_v_per_s,temp_degc
1,3.167,0.000,0.000,0.000,0.000,0.000,0.000,34.613
26,3.167,0.000,0.000,0.000,0.000,0.000,0.000,34.601
51,3.167,0.000,0.000,0.000,0.000,0.000,0.000,34.622
76,3.167,0.000,0.000,0.000,0.000,0.000,0.000,34.598
101,3.167,0.000,0.000,0.000,0.000,0.000,0.000,34.557
126,3.167,0.000,0.000,0.000,0.000,0.000,0.000,34.557
151,3.167,0.000,0.000,0.000,0.000,0.000,0.000,34.580
176,3.167,0.000,0.000,0.000,0.000,0.000,0.000,34.618
201,3.167,0.000,0.000,0.000,0.000,0.000,0.000,34.599
226,3.167,0.000,0.000,0.000,0.000,0.000,0.000,34.644
251,3.167,0.000,0.000,0.000,0.000,0.000,0.000,34.626
276,3.167,0.000,0.000,0.000,0.000,0.000,0.000,34.550
301,3.167,0.000,0.000,0.000,0.000,0.000,0.000,34.599
326,3.167,0.000,0.000,0.000,0.000,0.000,0.000,34.631
351,3.167,0.000,0.000,0.000,0.000,0.000,0.000,34.610
376,3.167,0.000,0.000,0.000,0.000,0.000,0.000,34.602
401,3.167,0.000,0.000,0.000,0.000,0.000,0.000,34.610
426,3.167,0.000,0.000,0.000,0.000,0.000,0.000,34.648
451,3.167,0.000,0.000,0.000,0.000,0.000,0.000,34.607
476,3.167,0.000,0.000,0.000,0.000,0.000,0.000,34.610
501,3.167,0.000,0.000,0.000,0.000,0.000,0.000,34.635
526,3.167,0.000,0.000,0.000,0.000,0.000,0.000,34.652
551,3.167,0.000,0.000,0.000,0.000,0.000,0.000,34.612
576,3.167,0.000,0.000,0.000,0.000,0.000,0.000,34.605
601,3.167,0.000,0.000,0.000,0.000,0.000,0.000,34.659
626,3.167,0.000,0.000,0.000,0.000,0.000,0.000,34.615
651,3.167,0.000,0.000,0.000,0.000,0.000,0.000,34.653
676,3.167,0.000,0.000,0.000,0.000,0.000,0.000,34.640
701,3.167,0.000,0.000,0.000,0.000,0.000,0.000,34.612
726,3.167,0.000,0.000,0.000,0.000,0.000,0.000,34.615
751,3.167,0.000,0.000,0.000,0.000,0.000,0.000,34.613
776,3.167,0.000,0.000,0.000,0.000,0.000,0.000,34.616
801,3.167,0.000,0.000,0.000,0.000,0.000,0.000,34.611
826,3.167,0.000,0.000,0.000,0.000,0.000,0.000,34.619
851,3.167,0.000,0.000,0.000,0.000,0.000,0.000,34.595
876,3.167,0.000,0.000,0.000,0.000,0.000,0.000,34.623
901,3.167,0.000,0.000,0.000,0.000,0.000,0.000,34.613
926,3.167,0.000,0.000,0.000,0.000,0.000,0.000,34.613
951,3.167,0.000,0.000,0.000,0.000,0.000,0.000,34.586
976,3.167,0.000,0.000,0.000,0.000,0.000,0.000,34.582
1001,3.167,0.000,0.000,0.000,0.000,0.000,0.000,34.613
1026,3.167,0.000,0.000,0.000,0.000,0.000,0.000,34.626
1051,3.167,0.000,0.000,0.000,0.000,0.000,0.000,34.590
1076,3.167,0.000,0.000,0.000,0.000,0.000,0.000,34.588
1101,3.167,0.000,0.000,0.000,0.000,0.000,0.000,34.601
1126,3.167,0.000,0.000,0.000,0.000,0.000,0.000,34.626
1151,3.167,0.000,0.000,0.000,0.000,0.000,0.000,34.604
1176,3.167,0.000,0.000,0.000,0.000,0.000,0.000,34.612
1201,3.167,0.000,0.000,0.000,0.000,0.000,0.000,34.610
1226,3.167,0.000,0.000,0.000,0.000,0.000,0.000,34.627
1251,3.167,0.000,0.000,0.000,0.000,0.000,0.000,34.636
1276,3.167,0.000,0.000,0.000,0.000,0.000,0.000,34.613
1301,3.167,0.000,0.000,0.000,0.000,0.000,0.000,34.611
1326,3.167,0.000,0.000,0.000,0.000,0.000,0.000,34.611
1351,3.167,0.000,0.000,0.000,0.000,0.000,0.000,34.616
1376,3.167,0.000,0.000,0.000,0.000,0.000,0.000,34.618
1401,3.167,0.000,0.000,0.000,0.000,0.000,0.000,34.631
1426,3.167,0.000,0.000,0.000,0.000,0.000,0.000,34.595
1451,3.167,0.000,0.000,0.000,0.000,0.000,0.000,34.607
1476,3.167,0.000,0.000,0.000,0.000,0.000,0.000,34.582
1501,3.168,0.000,0.000,0.000,0.000,0.000,0.000,34.600
1526,3.167,0.000,0.000,0.000,0.000,0.000,0.000,34.613
1551,3.168,0.000,0.000,0.000,0.000,0.000,0.000,34.617
1576,3.167,0.000,0.000,0.000,0.000,0.000,0.000,34.624
1601,3.167,0.000,0.000,0.000,0.000,0.000,0.000,34.624
1626,3.168,0.000,0.000,0.000,0.000,0.000,0.000,34.605
1651,3.168,0.000,0.000,0.000,0.000,0.000,0.000,34.641
1676,3.168,0.000,0.000,0.000,0.000,0.000,0.000,34.624
1701,3.168,0.000,0.000,0.000,0.000,0.000,0.000,34.603
1726,3.168,0.000,0.000,0.000,0.000,0.000,0.000,34.628
1751,3.168,0.000,0.000,0.000,0.000,0.000,0.000,34.610
1776,3.168,0.000,0.000,0.000,0.000,0.000,0.000,34.612
1801,3.168,0.000,0.000,0.000,0.000,0.000,0.000,34.590
1826,3.168,0.000,0.000,0.000,0.000,0.000,0.000,34.585
1851,3.168,0.000,0.000,0.000,0.000,0.000,0.000,34.597
1876,3.168,0.000,0.000,0.000,0.000,0.000,0.000,34.624
1901,3.168,0.000,0.000,0.000,0.000,0.000,0.000,34.603
1926,3.168,0.000,0.000,0.000,0.000,0.000,0.000,34.566
1951,3.168,0.000,0.000,0.000,0.000,0.000,0.000,34.599
1976,3.168,0.000,0.000,0.000,0.000,0.000,0.000,34.605
2001,3.168,0.000,0.000,0.000,0.000,0.000,0.000,34.613
2026,3.168,0.000,0.000,0.000,0.000,0.000,0.000,34.583
2051,3.168,0.000,0.000,0.000,0.000,0.000,0.000,34.623
2076,3.168,0.000,0.000,0.000,0.000,0.000,0.000,34.587
2101,3.168,0.000,0.000,0.000,0.000,0.000,0.000,34.583
2126,3.168,0.000,0.000,0.000,0.000,0.000,0.000,34.563
2151,3.168,0.000,0.000,0.000,0.000,0.000,0.000,34.622
2176,3.168,0.000,0.000,0.000,0.000,0.000,0.000,34.641
2201,3.168,0.000,0.000,0.000,0.000,0.000,0.000,34.604
2226,3.168,0.000,0.000,0.000,0.000,0.000,0.000,34.560
2251,3.168,0.000,0.000,0.000,0.000,0.000,0.000,34.601
2276,3.168,0.000,0.000,0.000,0.000,0.000,0.000,34.592
2301,3.168,0.000,0.000,0.000,0.000,0.000,0.000,34.616
2326,3.168,0.000,0.000,0.000,0.000,0.000,0.000,34.645
2351,3.168,0.000,0.000,0.000,0.000,0.000,0.000,34.641
2376,3.168,0.000,0.000,0.000,0.000,0.000,0.000,34.618
2401,3.168,0.000,0.000,0.000,0.000,0.000,0.000,34.573
2426,3.168,0.000,0.000,0.000,0.000,0.000,0.000,34.600
2451,3.168,0.000,0.000,0.000,0.000,0.000,0.000,34.645
2476,3.168,0.000,0.000,0.000,0.000,0.000,0.000,34.617
2501,3.168,0.000,0.000,0.000,0.000,0.000,0.000,34.603
2526,3.168,0.000,0.000,0.000,0.000,0.000,0.000,34.582
2551,3.168,0.000,0.000,0.000,0.000,0.000,0.000,34.572
2576,3.168,0.000,0.000,0.000,0.000,0.000,0.000,34.606
2601,3.168,0.000,0.000,0.000,0.000,0.000,0.000,34.608
2626,3.168,0.000,0.000,0.000,0.000,0.000,0.000,34.634
2651,3.168,0.000,0.000,0.000,0.000,0.000,0.000,34.611
2676,3.168,0.000,0.000,0.000,0.000,0.000,0.000,34.608
2701,3.168,0.000,0.000,0.000,0.000,0.000,0.000,34.587
2726,3.168,0.000,0.000,0.000,0.000,0.000,0.000,34.547
2751,3.168,0.000,0.000,0.000,0.000,0.000,0.000,34.639
2776,3.168,0.000,0.000,0.000,0.000,0.000,0.000,34.648
2801,3.168,0.000,0.000,0.000,0.000,0.000,0.000,34.584
2826,3.168,0.000,0.000,0.000,0.000,0.000,0.000,34.573
2851,3.168,0.000,0.000,0.000,0.000,0.000,0.000,34.572
2876,3.168,0.000,0.000,0.000,0.000,0.000,0.000,34.624
2901,3.168,0.000,0.000,0.000,0.000,0.000,0.000,34.643
2926,3.168,0.000,0.000,0.000,0.000,0.000,0.000,34.628
2951,3.168,0.000,0.000,0.000,0.000,0.000,0.000,34.594
2976,3.168,0.000,0.000,0.000,0.000,0.000,0.000,34.638
3001,3.169,0.000,0.000,0.000,0.000,0.000,0.000,34.617
3026,3.168,0.000,0.000,0.000,0.000,0.000,0.000,34.603
3051,3.168,0.000,0.000,0.000,0.000,0.000,0.000,34.598
3076,3.168,0.000,0.000,0.000,0.000,0.000,0.000,34.602
3101,3.168,0.000,0.000,0.000,0.000,0.000,0.000,34.606
3126,3.168,0.000,0.000,0.000,0.000,0.000,0.000,34.575
3151,3.168,0.000,0.000,0.000,0.000,0.000,0.000,34.603
3176,3.168,0.000,0.000,0.000,0.000,0.000,0.000,34.562
3201,3.168,0.000,0.000,0.000,0.000,0.000,0.000,34.609
3226,3.168,0.000,0.000,0.000,0.000,0.000,0.000,34.597
3251,3.168,0.000,0.000,0.000,0.000,0.000,0.000,34.637
3276,3.169,0.000,0.000,0.000,0.000,0.000,0.000,34.588
3301,3.169,0.000,0.000,0.000,0.000,0.000,0.000,34.643
3326,3.169,0.000,0.000,0.000,0.000,0.000,0.000,34.582
3351,3.169,0.000,0.000,0.000,0.000,0.000,0.000,34.638
3376,3.169,0.000,0.000,0.000,0.000,0.000,0.000,34.619
3401,3.169,0.000,0.000,0.000,0.000,0.000,0.000,34.573
3426,3.169,0.000,0.000,0.000,0.000,0.000,0.000,34.618
3451,3.168,0.000,0.000,0.000,0.000,0.000,0.000,34.612
3476,3.169,0.000,0.000,0.000,0.000,0.000,0.000,34.636
3501,3.169,0.000,0.000,0.000,0.000,0.000,0.000,34.597
3526,3.169,0.000,0.000,0.000,0.000,0.000,0.000,34.591
3551,3.169,0.000,0.000,0.000,0.000,0.000,0.000,34.597
3576,3.169,0.000,0.000,0.000,0.000,0.000,0.000,34.617
3600,3.169,0.000,0.000,0.000,0.000,0.000,0.000,34.609
3625,3.361,1.625,0.011,0.000,0.038,0.000,0.002,34.581
3650,3.392,1.625,0.023,0.000,0.076,0.000,0.001,34.568
3675,3.418,1.625,0.034,0.000,0.114,0.000,0.001,34.604
3700,3.439,1.625,0.045,0.000,0.153,0.000,0.001,34.623
3725,3.457,1.625,0.056,0.000,0.192,0.000,0.001,34.656
3750,3.471,1.625,0.068,0.000,0.231,0.000,0.000,34.649
3775,3.479,1.625,0.079,0.000,0.270,0.000,0.000,34.675
3800,3.484,1.625,0.090,0.000,0.309,0.000,0.000,34.776
3825,3.486,1.625,0.102,0.000,0.349,0.000,0.000,34.824
3850,3.488,1.625,0.113,0.000,0.388,0.000,0.000,34.921
3875,3.490,1.625,0.124,0.000,0.428,0.000,0.000,34.988
3900,3.492,1.625,0.135,0.000,0.467,0.000,0.000,35.013
3925,3.495,1.625,0.147,0.000,0.506,0.000,0.000,35.081
3950,3.497,1.625,0.158,0.000,0.546,0.000,0.000,35.159
3975,3.500,1.625,0.169,0.000,0.585,0.000,0.000,35.219
4000,3.502,1.625,0.181,0.000,0.625,0.000,0.000,35.296
4025,3.505,1.625,0.192,0.000,0.664,0.000,0.000,35.347
4050,3.507,1.625,0.203,0.000,0.704,0.000,0.000,35.426
4075,3.510,1.625,0.214,0.000,0.744,0.000,0.000,35.489
4100,3.512,1.625,0.226,0.000,0.783,0.000,0.000,35.502
4125,3.515,1.625,0.237,0.000,0.823,0.000,0.000,35.564
4150,3.517,1.625,0.248,0.000,0.862,0.000,0.000,35.594
4175,3.520,1.625,0.260,0.000,0.902,0.000,0.000,35.635
4200,3.523,1.625,0.271,0.000,0.942,0.000,0.000,35.673
4225,3.525,1.625,0.282,0.000,0.982,0.000,0.000,35.728
4250,3.528,1.625,0.293,0.000,1.022,0.000,0.000,35.768
4275,3.531,1.625,0.305,0.000,1.061,0.000,0.000,35.804
4300,3.533,1.625,0.316,0.000,1.101,0.000,0.000,35.839
4325,3.536,1.625,0.327,0.000,1.141,0.000,0.000,35.885
4350,3.539,1.625,0.339,0.000,1.181,0.000,0.000,35.950
4375,3.541,1.625,0.350,0.000,1.221,0.000,0.000,35.964
4400,3.544,1.625,0.361,0.000,1.261,0.000,0.000,35.967
4425,3.547,1.625,0.372,0.000,1.301,0.000,0.000,35.962
4450,3.550,1.625,0.384,0.000,1.341,0.000,0.000,35.983
4475,3.552,1.625,0.395,0.000,1.381,0.000,0.000,36.006
4500,3.555,1.625,0.406,0.000,1.421,0.000,0.000,35.985
4525,3.558,1.625,0.418,0.000,1.461,0.000,0.000,36.060
4550,3.562,1.625,0.429,0.000,1.502,0.000,0.000,36.075
4575,3.565,1.625,0.440,0.000,1.542,0.000,0.000,36.052
4600,3.568,1.625,0.451,0.000,1.582,0.000,0.000,36.058
4625,3.571,1.625,0.463,0.000,1.622,0.000,0.000,36.057
4650,3.574,1.625,0.474,0.000,1.663,0.000,0.000,36.086
4675,3.578,1.625,0.485,0.000,1.703,0.000,0.000,36.069
4700,3.581,1.625,0.497,0.000,1.743,0.000,0.000,36.067
4725,3.584,1.625,0.508,0.000,1.784,0.000,0.000,36.065
4750,3.587,1.625,0.519,0.000,1.824,0.000,0.000,36.094
4775,3.590,1.625,0.530,0.000,1.865,0.000,0.000,36.049
4800,3.593,1.625,0.542,0.000,1.905,0.000,0.000,36.063
4825,3.596,1.625,0.553,0.000,1.946,0.000,0.000,36.039
4850,3.599,1.625,0.564,0.000,1.987,0.000,0.000,36.048
4875,3.602,1.625,0.576,0.000,2.027,0.000,0.000,36.035
4900,3.605,1.625,0.587,0.000,2.068,0.000,0.000,35.986
4925,3.607,1.625,0.598,0.000,2.109,0.000,0.000,36.018
4950,3.610,1.625,0.609,0.000,2.149,0.000,0.000,36.005
4975,3.612,1.625,0.621,0.000,2.190,0.000,0.000,36.006
5000,3.615,1.625,0.632,0.000,2.231,0.000,0.000,36.017
5025,3.617,1.625,0.643,0.000,2.272,0.000,0.000,36.032
5050,3.619,1.625,0.655,0.000,2.312,0.000,0.000,35.992
5075,3.622,1.625,0.666,0.000,2.353,0.000,0.000,35.991
5100,3.624,1.625,0.677,0.000,2.394,0.000,0.000,35.971
5125,3.626,1.625,0.688,0.000,2.435,0.000,0.000,35.970
5150,3.629,1.625,0.700,0.000,2.476,0.000,0.000,35.973
5175,3.631,1.625,0.711,0.000,2.517,0.000,0.000,36.028
5200,3.633,1.625,0.722,0.000,2.558,0.000,0.000,35.981
5225,3.635,1.625,0.734,0.000,2.599,0.000,0.000,36.004
5250,3.638,1.625,0.745,0.000,2.640,0.000,0.000,36.015
5275,3.640,1.625,0.756,0.000,2.681,0.000,0.000,36.002
5300,3.642,1.625,0.767,0.000,2.722,0.000,0.000,35.987
5325,3.645,1.625,0.779,0.000,2.763,0.000,0.000,36.038
5350,3.647,1.625,0.790,0.000,2.805,0.000,0.000,36.061
5375,3.649,1.625,0.801,0.000,2.846,0.000,0.000,36.016
5400,3.652,1.625,0.813,0.000,2.887,0.000,0.000,36.021
5425,3.654,1.625,0.824,0.000,2.928,0.000,0.000,36.025
5450,3.656,1.625,0.835,0.000,2.969,0.000,0.000,36.054
5475,3.659,1.625,0.846,0.000,3.011,0.000,0.000,36.064
5500,3.661,1.625,0.858,0.000,3.052,0.000,0.000,36.073
5525,3.664,1.625,0.869,0.000,3.093,0.000,0.000,36.065
5550,3.666,1.625,0.880,0.000,3.135,0.000,0.000,36.041
5575,3.668,1.625,0.892,0.000,3.176,0.000,0.000,36.090
5600,3.671,1.625,0.903,0.000,3.217,0.000,0.000,36.071
5625,3.673,1.625,0.914,0.000,3.259,0.000,0.000,36.093
5650,3.676,1.625,0.925,0.000,3.300,0.000,0.000,36.081
5675,3.678,1.625,0.937,0.000,3.342,0.000,0.000,36.070
5700,3.680,1.625,0.948,0.000,3.383,0.000,0.000,36.105
5725,3.683,1.625,0.959,0.000,3.425,0.000,0.000,36.077
5750,3.685,1.625,0.971,0.000,3.467,0.000,0.000,36.143
5775,3.687,1.625,0.982,0.000,3.508,0.000,0.000,36.185
5800,3.690,1.625,0.993,0.000,3.550,0.000,0.000,36.174
5825,3.692,1.625,1.005,0.000,3.591,0.000,0.000,36.158
5850,3.694,1.625,1.016,0.000,3.633,0.000,0.000,36.203
5875,3.697,1.625,1.027,0.000,3.675,0.000,0.000,36.182
5900,3.699,1.625,1.038,0.000,3.717,0.000,0.000,36.191
5925,3.701,1.625,1.050,0.000,3.758,0.000,0.000,36.185
5950,3.704,1.625,1.061,0.000,3.800,0.000,0.000,36.230
5975,3.706,1.625,1.072,0.000,3.842,0.000,0.000,36.293
6000,3.708,1.625,1.084,0.000,3.884,0.000,0.000,36.278
6025,3.710,1.625,1.095,0.000,3.926,0.000,0.000,36.273
6050,3.713,1.625,1.106,0.000,3.968,0.000,0.000,36.233
6075,3.715,1.625,1.117,0.000,4.009,0.000,0.000,36.302
6100,3.717,1.625,1.129,0.000,4.051,0.000,0.000,36.290
6125,3.719,1.625,1.140,0.000,4.093,0.000,0.000,36.304
6150,3.721,1.625,1.151,0.000,4.135,0.000,0.000,36.292
6175,3.723,1.625,1.163,0.000,4.177,0.000,0.000,36.314
6200,3.725,1.625,1.174,0.000,4.219,0.000,0.000,36.348
6225,3.728,1.625,1.185,0.000,4.261,0.000,0.000,36.373
6250,3.730,1.625,1.196,0.000,4.304,0.000,0.000,36.357
6275,3.732,1.625,1.208,0.000,4.346,0.000,0.000,36.341
6300,3.734,1.625,1.219,0.000,4.388,0.000,0.000,36.412
6325,3.736,1.625,1.230,0.000,4.430,0.000,0.000,36.378
6350,3.738,1.625,1.242,0.000,4.472,0.000,0.000,36.406
6375,3.740,1.625,1.253,0.000,4.514,0.000,0.000,36.431
6400,3.742,1.625,1.264,0.000,4.557,0.000,0.000,36.438
6425,3.744,1.625,1.275,0.000,4.599,0.000,0.000,36.431
6450,3.746,1.625,1.287,0.000,4.641,0.000,0.000,36.411
6475,3.748,1.625,1.298,0.000,4.683,0.000,0.000,36.454
6500,3.750,1.625,1.309,0.000,4.726,0.000,0.000,36.437
6525,3.752,1.625,1.321,0.000,4.768,0.000,0.000,36.429
6550,3.754,1.625,1.332,0.000,4.810,0.000,0.000,36.478
6575,3.757,1.625,1.343,0.000,4.853,0.000,0.000,36.489
6600,3.759,1.625,1.354,0.000,4.895,0.000,0.000,36.480
6625,3.761,1.625,1.366,0.000,4.938,0.000,0.000,36.450
6650,3.763,1.625,1.377,0.000,4.980,0.000,0.000,36.510
6675,3.765,1.625,1.388,0.000,5.023,0.000,0.000,36.441
6700,3.768,1.625,1.400,0.000,5.065,0.000,0.000,36.478
6725,3.770,1.625,1.411,0.000,5.108,0.000,0.000,36.498
6750,3.772,1.625,1.422,0.000,5.150,0.000,0.000,36.437
6775,3.774,1.625,1.433,0.000,5.193,0.000,0.000,36.474
6800,3.777,1.625,1.445,0.000,5.235,0.000,0.000,36.505
6825,3.779,1.625,1.456,0.000,5.278,0.000,0.000,36.469
6850,3.782,1.625,1.467,0.000,5.321,0.000,0.000,36.512
6875,3.784,1.625,1.479,0.000,5.363,0.000,0.000,36.511
6900,3.786,1.625,1.490,0.000,5.406,0.000,0.000,36.507
6925,3.789,1.625,1.501,0.000,5.449,0.000,0.000,36.582
6950,3.791,1.625,1.512,0.000,5.492,0.000,0.000,36.527
6975,3.794,1.625,1.524,0.000,5.534,0.000,0.000,36.542
7000,3.796,1.625,1.535,0.000,5.577,0.000,0.000,36.547
7025,3.799,1.625,1.546,0.000,5.620,0.000,0.000,36.524
7050,3.801,1.625,1.558,0.000,5.663,0.000,0.000,36.531
7075,3.804,1.625,1.569,0.000,5.706,0.000,0.000,36.575
7100,3.807,1.625,1.580,0.000,5.749,0.000,0.000,36.525
7125,3.809,1.625,1.591,0.000,5.792,0.000,0.000,36.514
7150,3.812,1.625,1.603,0.000,5.835,0.000,0.000,36.549
7175,3.815,1.625,1.614,0.000,5.878,0.000,0.000,36.545
7200,3.818,1.625,1.625,0.000,5.921,0.000,0.000,36.526
7225,3.820,1.625,1.637,0.000,5.964,0.000,0.000,36.558
7250,3.823,1.625,1.648,0.000,6.007,0.000,0.000,36.539
7275,3.826,1.625,1.659,0.000,6.050,0.000,0.000,36.538
7300,3.829,1.625,1.670,0.000,6.094,0.000,0.000,36.553
7325,3.832,1.625,1.682,0.000,6.137,0.000,0.000,36.568
7350,3.835,1.625,1.693,0.000,6.180,0.000,0.000,36.550
7375,3.838,1.625,1.704,0.000,6.223,0.000,0.000,36.540
7400,3.841,1.625,1.716,0.000,6.267,0.000,0.000,36.548
7425,3.844,1.625,1.727,0.000,6.310,0.000,0.000,36.542
7450,3.847,1.625,1.738,0.000,6.353,0.000,0.000,36.563
7475,3.850,1.625,1.749,0.000,6.397,0.000,0.000,36.574
7500,3.853,1.625,1.761,0.000,6.440,0.000,0.000,36.535
7525,3.856,1.625,1.772,0.000,6.484,0.000,0.000,36.529
7550,3.859,1.625,1.783,0.000,6.527,0.000,0.000,36.561
7575,3.862,1.625,1.795,0.000,6.571,0.000,0.000,36.572
7600,3.865,1.625,1.806,0.000,6.615,0.000,0.000,36.531
7625,3.869,1.625,1.817,0.000,6.658,0.000,0.000,36.558
7650,3.872,1.625,1.828,0.000,6.702,0.000,0.000,36.560
7675,3.875,1.625,1.840,0.000,6.746,0.000,0.000,36.603
7700,3.878,1.625,1.851,0.000,6.789,0.000,0.000,36.578
7725,3.881,1.625,1.862,0.000,6.833,0.000,0.000,36.578
7750,3.885,1.625,1.874,0.000,6.877,0.000,0.000,36.580
7775,3.888,1.625,1.885,0.000,6.921,0.000,0.000,36.584
7800,3.891,1.625,1.896,0.000,6.965,0.000,0.000,36.588
7825,3.894,1.625,1.907,0.000,7.009,0.000,0.000,36.553
7850,3.897,1.625,1.919,0.000,7.053,0.000,0.000,36.595
7875,3.901,1.625,1.930,0.000,7.097,0.000,0.000,36.589
7900,3.904,1.625,1.941,0.000,7.141,0.000,0.000,36.539
7925,3.907,1.625,1.953,0.000,7.185,0.000,0.000,36.584
7950,3.910,1.625,1.964,0.000,7.229,0.000,0.000,36.558
7975,3.913,1.625,1.975,0.000,7.273,0.000,0.000,36.591
8000,3.917,1.625,1.986,0.000,7.317,0.000,0.000,36.557
8025,3.920,1.625,1.998,0.000,7.361,0.000,0.000,36.589
8050,3.923,1.625,2.009,0.000,7.406,0.000,0.000,36.522
8075,3.926,1.625,2.020,0.000,7.450,0.000,0.000,36.568
8100,3.929,1.625,2.032,0.000,7.494,0.000,0.000,36.552
8125,3.933,1.625,2.043,0.000,7.539,0.000,0.000,36.557
8150,3.936,1.625,2.054,0.000,7.583,0.000,0.000,36.548
8175,3.939,1.625,2.065,0.000,7.628,0.000,0.000,36.537
8200,3.942,1.625,2.077,0.000,7.672,0.000,0.000,36.563
8225,3.945,1.625,2.088,0.000,7.717,0.000,0.000,36.540
8250,3.949,1.625,2.099,0.000,7.761,0.000,0.000,36.508
8275,3.952,1.625,2.111,0.000,7.806,0.000,0.000,36.571
8300,3.955,1.625,2.122,0.000,7.850,0.000,0.000,36.587
8325,3.958,1.625,2.133,0.000,7.895,0.000,0.000,36.538
8350,3.961,1.625,2.144,0.000,7.940,0.000,0.000,36.540
8375,3.965,1.625,2.156,0.000,7.984,0.000,0.000,36.520
8400,3.968,1.625,2.167,0.000,8.029,0.000,0.000,36.540
8425,3.971,1.625,2.178,0.000,8.074,0.000,0.000,36.547
8450,3.974,1.625,2.190,0.000,8.119,0.000,0.000,36.524
8475,3.977,1.625,2.201,0.000,8.164,0.000,0.000,36.543
8500,3.980,1.625,2.212,0.000,8.209,0.000,0.000,36.522
8525,3.984,1.625,2.223,0.000,8.253,0.000,0.000,36.551
8550,3.987,1.625,2.235,0.000,8.298,0.000,0.000,36.529
8575,3.990,1.625,2.246,0.000,8.343,0.000,0.000,36.501
8600,3.993,1.625,2.257,0.000,8.388,0.000,0.000,36.517
8625,3.996,1.625,2.269,0.000,8.434,0.000,0.000,36.548
8650,3.999,1.625,2.280,0.000,8.479,0.000,0.000,36.525
8675,4.002,1.625,2.291,0.000,8.524,0.000,0.000,36.498
8700,4.005,1.625,2.302,0.000,8.569,0.000,0.000,36.498
8725,4.008,1.625,2.314,0.000,8.614,0.000,0.000,36.505
8750,4.011,1.625,2.325,0.000,8.660,0.000,0.000,36.476
8775,4.015,1.625,2.336,0.000,8.705,0.000,0.000,36.506
8800,4.018,1.625,2.348,0.000,8.750,0.000,0.000,36.505
8825,4.021,1.625,2.359,0.000,8.796,0.000,0.000,36.524
8850,4.024,1.625,2.370,0.000,8.841,0.000,0.000,36.455
8875,4.027,1.625,2.381,0.000,8.886,0.000,0.000,36.500
8900,4.030,1.625,2.393,0.000,8.932,0.000,0.000,36.503
8925,4.034,1.625,2.404,0.000,8.977,0.000,0.000,36.461
8950,4.037,1.625,2.415,0.000,9.023,0.000,0.000,36.502
8975,4.040,1.625,2.427,0.000,9.068,0.000,0.000,36.503
9000,4.044,1.625,2.438,0.000,9.114,0.000,0.000,36.463
9025,4.047,1.625,2.449,0.000,9.160,0.000,0.000,36.551
9050,4.051,1.625,2.460,0.000,9.205,0.000,0.000,36.493
9075,4.054,1.625,2.472,0.000,9.251,0.000,0.000,36.518
9100,4.058,1.625,2.483,0.000,9.297,0.000,0.000,36.556
9125,4.061,1.625,2.494,0.000,9.343,0.000,0.000,36.524
9150,4.065,1.625,2.506,0.000,9.389,0.000,0.000,36.515
9175,4.068,1.625,2.517,0.000,9.435,0.000,0.000,36.556
9200,4.072,1.625,2.528,0.000,9.480,0.000,0.000,36.547
9225,4.076,1.625,2.539,0.000,9.526,0.000,0.000,36.533
9250,4.080,1.625,2.551,0.000,9.572,0.000,0.000,36.558
9275,4.083,1.625,2.562,0.000,9.619,0.000,0.000,36.548
9300,4.087,1.625,2.573,0.000,9.665,0.000,0.000,36.547
9325,4.091,1.625,2.585,0.000,9.711,0.000,0.000,36.538
9350,4.095,1.625,2.596,0.000,9.757,0.000,0.000,36.572
9375,4.099,1.625,2.607,0.000,9.803,0.000,0.000,36.567
9400,4.103,1.625,2.618,0.000,9.849,0.000,0.000,36.578
9425,4.107,1.625,2.630,0.000,9.896,0.000,0.000,36.611
9450,4.112,1.625,2.641,0.000,9.942,0.000,0.000,36.593
9475,4.116,1.625,2.652,0.000,9.989,0.000,0.000,36.644
9500,4.120,1.625,2.664,0.000,10.035,0.000,0.000,36.594
9525,4.125,1.625,2.675,0.000,10.082,0.000,0.000,36.629
9550,4.129,1.625,2.686,0.000,10.128,0.000,0.000,36.602
9575,4.133,1.625,2.697,0.000,10.175,0.000,0.000,36.674
9600,4.138,1.625,2.709,0.000,10.222,0.000,0.000,36.644
9625,4.142,1.625,2.720,0.000,10.268,0.000,0.000,36.656
9650,4.147,1.625,2.731,0.000,10.315,0.000,0.000,36.648
9675,4.151,1.625,2.743,0.000,10.362,0.000,0.000,36.692
9700,4.156,1.625,2.754,0.000,10.409,0.000,0.000,36.676
9725,4.160,1.625,2.765,0.000,10.456,0.000,0.000,36.667
9750,4.165,1.625,2.776,0.000,10.503,0.000,0.000,36.674
9775,4.170,1.625,2.788,0.000,10.550,0.000,0.000,36.695
9800,4.174,1.625,2.799,0.000,10.597,0.000,0.000,36.711
9825,4.179,1.625,2.810,0.000,10.644,0.000,0.000,36.744
9850,4.183,1.625,2.822,0.000,10.691,0.000,0.000,36.704
9875,4.188,1.625,2.833,0.000,10.738,0.000,0.000,36.772
9900,4.192,1.625,2.844,0.000,10.786,0.000,0.000,36.738
9925,4.197,1.625,2.855,0.000,10.833,0.000,0.000,36.746
9950,4.200,1.599,2.867,0.000,10.879,0.000,0.000,36.791
9975,4.200,1.528,2.877,0.000,10.925,0.000,0.000,36.769
10000,4.200,1.473,2.888,0.000,10.969,0.000,0.000,36.804
10025,4.200,1.426,2.898,0.000,11.011,0.000,0.000,36.750
10050,4.200,1.384,2.908,0.000,11.052,0.000,0.000,36.739
10075,4.200,1.346,2.917,0.000,11.092,0.000,0.000,36.718
10100,4.200,1.309,2.926,0.000,11.130,0.000,0.000,36.685
10125,4.200,1.276,2.935,0.000,11.168,0.000,0.000,36.680
10150,4.200,1.242,2.944,0.000,11.205,0.000,0.000,36.673
10175,4.200,1.210,2.952,0.000,11.240,0.000,0.000,36.681
10200,4.200,1.181,2.961,0.000,11.275,0.000,0.000,36.640
10225,4.200,1.153,2.969,0.000,11.309,0.000,0.000,36.614
10250,4.200,1.125,2.977,0.000,11.342,0.000,0.000,36.555
10275,4.200,1.098,2.985,0.000,11.375,0.000,0.000,36.510
10300,4.200,1.073,2.992,0.000,11.407,0.000,0.000,36.516
10325,4.200,1.049,2.999,0.000,11.437,0.000,0.000,36.433
10350,4.200,1.025,3.007,0.000,11.468,0.000,0.000,36.402
10375,4.200,1.002,3.014,0.000,11.497,0.000,0.000,36.376
10400,4.200,0.980,3.021,0.000,11.526,0.000,0.000,36.365
10425,4.200,0.958,3.027,0.000,11.554,0.000,0.000,36.290
10450,4.200,0.937,3.034,0.000,11.582,0.000,0.000,36.286
10475,4.200,0.916,3.040,0.000,11.609,0.000,0.000,36.253
10500,4.200,0.898,3.047,0.000,11.636,0.000,0.000,36.258
10525,4.200,0.878,3.053,0.000,11.661,0.000,0.000,36.194
10550,4.200,0.859,3.059,0.000,11.687,0.000,0.000,36.167
10575,4.200,0.840,3.065,0.000,11.712,0.000,0.000,36.138
10600,4.200,0.822,3.070,0.000,11.736,0.000,0.000,36.122
10625,4.200,0.805,3.076,0.000,11.759,0.000,0.000,36.015
10650,4.200,0.786,3.082,0.000,11.783,0.000,0.000,36.010
10675,4.200,0.769,3.087,0.000,11.805,0.000,0.000,35.996
10700,4.200,0.753,3.092,0.000,11.828,0.000,0.000,35.965
10725,4.200,0.735,3.097,0.000,11.849,0.000,0.000,35.937
10750,4.200,0.721,3.103,0.000,11.870,0.000,0.000,35.911
10775,4.200,0.704,3.107,0.000,11.891,0.000,0.000,35.882
10800,4.200,0.689,3.112,0.000,11.912,0.000,0.000,35.858
10825,4.200,0.672,3.117,0.000,11.931,0.000,0.000,35.777
10850,4.200,0.657,3.122,0.000,11.951,0.000,0.000,35.813
10875,4.200,0.642,3.126,0.000,11.970,0.000,0.000,35.739
10900,4.200,0.629,3.131,0.000,11.988,0.000,0.000,35.718
10925,4.200,0.614,3.135,0.000,12.006,0.000,0.000,35.685
10950,4.200,0.599,3.139,0.000,12.024,0.000,0.000,35.633
10975,4.200,0.584,3.143,0.000,12.041,0.000,0.000,35.612
11000,4.200,0.572,3.147,0.000,12.058,0.000,0.000,35.629
11025,4.200,0.558,3.151,0.000,12.075,0.000,0.000,35.582
11050,4.200,0.544,3.155,0.000,12.091,0.000,0.000,35.540
11075,4.200,0.531,3.159,0.000,12.106,0.000,0.000,35.512
11100,4.200,0.517,3.162,0.000,12.122,0.000,0.000,35.502
11125,4.200,0.505,3.166,0.000,12.136,0.000,0.000,35.467
11150,4.200,0.494,3.169,0.000,12.151,0.000,0.000,35.471
11175,4.200,0.480,3.173,0.000,12.165,0.000,0.000,35.410
11200,4.200,0.468,3.176,0.000,12.179,0.000,0.000,35.435
11225,4.200,0.457,3.179,0.000,12.192,0.000,0.000,35.370
11250,4.200,0.446,3.182,0.000,12.206,0.000,0.000,35.332
11275,4.200,0.434,3.185,0.000,12.218,0.000,0.000,35.360
11300,4.200,0.423,3.188,0.000,12.231,0.000,0.000,35.340
11325,4.200,0.412,3.191,0.000,12.243,0.000,0.000,35.309
11350,4.200,0.401,3.194,0.000,12.255,0.000,0.000,35.355
11375,4.200,0.391,3.197,0.000,12.267,0.000,0.000,35.287
11400,4.200,0.381,3.199,0.000,12.278,0.000,0.000,35.248
11425,4.200,0.371,3.202,0.000,12.289,0.000,0.000,35.249
11450,4.200,0.361,3.205,0.000,12.299,0.000,0.000,35.189
11475,4.200,0.352,3.207,0.000,12.310,0.000,0.000,35.221
11500,4.200,0.342,3.210,0.000,12.320,0.000,0.000,35.206
11525,4.200,0.332,3.212,0.000,12.330,0.000,0.000,35.133
11550,4.200,0.323,3.214,0.000,12.339,0.000,0.000,35.113
11575,4.200,0.315,3.216,0.000,12.349,0.000,0.000,35.151
11600,4.200,0.306,3.219,0.000,12.358,0.000,0.000,35.127
11625,4.200,0.298,3.221,0.000,12.366,0.000,0.000,35.091
11650,4.200,0.290,3.223,0.000,12.375,0.000,0.000,35.049
11675,4.200,0.282,3.225,0.000,12.383,0.000,0.000,35.059
11700,4.200,0.276,3.227,0.000,12.391,0.000,0.000,35.046
11725,4.200,0.268,3.228,0.000,12.399,0.000,0.000,35.014
11750,4.200,0.259,3.230,0.000,12.407,0.000,0.000,35.019
11775,4.200,0.253,3.232,0.000,12.415,0.000,0.000,35.042
11800,4.200,0.246,3.234,0.000,12.422,0.000,0.000,34.976
11825,4.200,0.239,3.235,0.000,12.429,0.000,0.000,34.967
11850,4.200,0.233,3.237,0.000,12.436,0.000,0.000,34.970
11875,4.200,0.228,3.239,0.000,12.442,0.000,0.000,34.966
11900,4.200,0.220,3.240,0.000,12.449,0.000,0.000,34.957
11925,4.200,0.214,3.242,0.000,12.455,0.000,0.000,34.958
11950,4.200,0.208,3.243,0.000,12.461,0.000,0.000,34.952
11975,4.200,0.203,3.245,0.000,12.467,0.000,0.000,34.919
12000,4.200,0.197,3.246,0.000,12.473,0.000,0.000,34.925
12025,4.200,0.192,3.247,0.000,12.479,0.000,0.000,34.881
12050,4.200,0.187,3.249,0.000,12.484,0.000,0.000,34.887
12075,4.200,0.181,3.250,0.000,12.490,0.000,0.000,34.878
12100,4.200,0.177,3.251,0.000,12.495,0.000,0.000,34.883
12125,4.200,0.172,3.252,0.000,12.500,0.000,0.000,34.856
12150,4.200,0.167,3.254,0.000,12.505,0.000,0.000,34.873
12175,4.200,0.163,3.255,0.000,12.510,0.000,0.000,34.866
12200,4.200,0.159,3.256,0.000,12.515,0.000,0.000,34.857
12225,4.200,0.155,3.257,0.000,12.519,0.000,0.000,34.850
12250,4.200,0.150,3.258,0.000,12.524,0.000,0.000,34.859
12275,4.200,0.146,3.259,0.000,12.528,0.000,0.000,34.828
12300,4.200,0.142,3.260,0.000,12.532,0.000,0.000,34.848
12325,4.200,0.139,3.261,0.000,12.536,0.000,0.000,34.842
12350,4.200,0.134,3.262,0.000,12.540,0.000,0.000,34.851
12375,4.200,0.131,3.263,0.000,12.544,0.000,0.000,34.826
12400,4.200,0.128,3.264,0.000,12.548,0.000,0.000,34.757
12425,4.200,0.124,3.265,0.000,12.552,0.000,0.000,34.803
12450,4.200,0.122,3.266,0.000,12.555,0.000,0.000,34.744
12475,4.200,0.119,3.266,0.000,12.559,0.000,0.000,34.791
12500,4.200,0.115,3.267,0.000,12.562,0.000,0.000,34.797
12525,4.200,0.112,3.268,0.000,12.565,0.000,0.000,34.783
12550,4.200,0.109,3.269,0.000,12.569,0.000,0.000,34.782
12575,4.200,0.107,3.269,0.000,12.572,0.000,0.000,34.739
12600,4.200,0.104,3.270,0.000,12.575,0.000,0.000,34.743
12625,4.200,0.102,3.271,0.000,12.578,0.000,0.000,34.748
12650,4.200,0.099,3.272,0.000,12.581,0.000,0.000,34.766
12675,4.200,0.096,3.272,0.000,12.584,0.000,0.000,34.741
12700,4.200,0.095,3.273,0.000,12.586,0.000,0.000,34.743
12725,4.200,0.092,3.274,0.000,12.589,0.000,0.000,34.766
12750,4.200,0.089,3.274,0.000,12.592,0.000,0.000,34.720
12775,4.200,0.088,3.275,0.000,12.594,0.000,0.000,34.719
12800,4.200,0.086,3.275,0.000,12.597,0.000,0.000,34.717
12825,4.200,0.083,3.276,0.000,12.599,0.000,0.000,34.702
12850,4.200,0.081,3.277,0.000,12.602,0.000,0.000,34.684
12875,4.200,0.080,3.277,0.000,12.604,0.000,0.000,34.693
12900,4.200,0.078,3.278,0.000,12.606,0.000,0.000,34.677
12925,4.200,0.076,3.278,0.000,12.609,0.000,0.000,34.724
12950,4.200,0.074,3.279,0.000,12.611,0.000,0.000,34.700
12975,4.200,0.073,3.279,0.000,12.613,0.000,0.000,34.727
13000,4.200,0.071,3.280,0.000,12.615,0.000,0.000,34.705
13025,4.200,0.070,3.280,0.000,12.617,0.000,0.000,34.704
13050,4.200,0.069,3.281,0.000,12.619,0.000,0.000,34.696
13075,4.200,0.067,3.281,0.000,12.621,0.000,0.000,34.697
13099,4.196,0.000,3.281,0.000,12.622,0.000,0.000,34.677
13124,4.195,0.000,3.281,0.000,12.622,0.000,0.000,34.729
13149,4.195,0.000,3.281,0.000,12.622,0.000,0.000,34.679
13174,4.194,0.000,3.281,0.000,12.622,0.000,0.000,34.642
13199,4.194,0.000,3.281,0.000,12.622,0.000,0.000,34.647
13224,4.193,0.000,3.281,0.000,12.622,0.000,0.000,34.663
13249,4.193,0.000,3.281,0.000,12.622,0.000,0.000,34.654
13274,4.193,0.000,3.281,0.000,12.622,0.000,0.000,34.663
13299,4.193,0.000,3.281,0.000,12.622,0.000,0.000,34.698
13324,4.192,0.000,3.281,0.000,12.622,0.000,0.000,34.690
13349,4.192,0.000,3.281,0.000,12.622,0.000,0.000,34.680
13374,4.192,0.000,3.281,0.000,12.622,0.000,0.000,34.637
13399,4.191,0.000,3.281,0.000,12.622,0.000,0.000,34.666
13424,4.191,0.000,3.281,0.000,12.622,0.000,0.000,34.652
13449,4.191,0.000,3.281,0.000,12.622,0.000,0.000,34.648
13474,4.191,0.000,3.281,0.000,12.622,0.000,0.000,34.694
13499,4.191,0.000,3.281,0.000,12.622,0.000,0.000,34.660
13524,4.190,0.000,3.281,0.000,12.622,0.000,0.000,34.635
13549,4.190,0.000,3.281,0.000,12.622,0.000,0.000,34.625
13574,4.190,0.000,3.281,0.000,12.622,0.000,0.000,34.650
13599,4.190,0.000,3.281,0.000,12.622,0.000,0.000,34.665
13624,4.190,0.000,3.281,0.000,12.622,0.000,0.000,34.700
13649,4.190,0.000,3.281,0.000,12.622,0.000,0.000,34.654
13674,4.189,0.000,3.281,0.000,12.622,0.000,0.000,34.649
13699,4.189,0.000,3.281,0.000,12.622,0.000,0.000,34.642
13724,4.189,0.000,3.281,0.000,12.622,0.000,0.000,34.706
13749,4.189,0.000,3.281,0.000,12.622,0.000,0.000,34.657
13774,4.189,0.000,3.281,0.000,12.622,0.000,0.000,34.660
13799,4.189,0.000,3.281,0.000,12.622,0.000,0.000,34.654
13824,4.189,0.000,3.281,0.000,12.622,0.000,0.000,34.624
13849,4.188,0.000,3.281,0.000,12.622,0.000,0.000,34.624
13874,4.188,0.000,3.281,0.000,12.622,0.000,0.000,34.642
13899,4.188,0.000,3.281,0.000,12.622,0.000,0.000,34.628
13924,4.188,0.000,3.281,0.000,12.622,0.000,0.000,34.640
13949,4.188,0.000,3.281,0.000,12.622,0.000,0.000,34.595
13974,4.188,0.000,3.281,0.000,12.622,0.000,0.000,34.605
13999,4.188,0.000,3.281,0.000,12.622,0.000,0.000,34.658
14024,4.188,0.000,3.281,0.000,12.622,0.000,0.000,34.649
14049,4.187,0.000,3.281,0.000,12.622,0.000,0.000,34.635
14074,4.187,0.000,3.281,0.000,12.622,0.000,0.000,34.621
14099,4.187,0.000,3.281,0.000,12.622,0.000,0.000,34.632
14124,4.187,0.000,3.281,0.000,12.622,0.000,0.000,34.657
14149,4.187,0.000,3.281,0.000,12.622,0.000,0.000,34.632
14174,4.187,0.000,3.281,0.000,12.622,0.000,0.000,34.607
14199,4.187,0.000,3.281,0.000,12.622,0.000,0.000,34.635
14224,4.187,0.000,3.281,0.000,12.622,0.000,0.000,34.647
14249,4.187,0.000,3.281,0.000,12.622,0.000,0.000,34.615
14274,4.187,0.000,3.281,0.000,12.622,0.000,0.000,34.642
14299,4.186,0.000,3.281,0.000,12.622,0.000,0.000,34.614
14324,4.186,0.000,3.281,0.000,12.622,0.000,0.000,34.595
14349,4.186,0.000,3.281,0.000,12.622,0.000,0.000,34.633
14374,4.186,0.000,3.281,0.000,12.622,0.000,0.000,34.630
14399,4.186,0.000,3.281,0.000,12.622,0.000,0.000,34.617
14424,4.186,0.000,3.281,0.000,12.622,0.000,0.000,34.629
14449,4.186,0.000,3.281,0.000,12.622,0.000,0.000,34.648
14474,4.186,0.000,3.281,0.000,12.622,0.000,0.000,34.593
14499,4.186,0.000,3.281,0.000,12.622,0.000,0.000,34.642
14524,4.186,0.000,3.281,0.000,12.622,0.000,0.000,34.605
14549,4.186,0.000,3.281,0.000,12.622,0.000,0.000,34.618
14574,4.186,0.000,3.281,0.000,12.622,0.000,0.000,34.633
14599,4.186,0.000,3.281,0.000,12.622,0.000,0.000,34.627
14624,4.185,0.000,3.281,0.000,12.622,0.000,0.000,34.634
14649,4.185,0.000,3.281,0.000,12.622,0.000,0.000,34.563
14674,4.185,0.000,3.281,0.000,12.622,0.000,0.000,34.606
14699,4.185,0.000,3.281,0.000,12.622,0.000,0.000,34.666
14724,4.185,0.000,3.281,0.000,12.622,0.000,0.000,34.602
14749,4.185,0.000,3.281,0.000,12.622,0.000,0.000,34.603
14774,4.185,0.000,3.281,0.000,12.622,0.000,0.000,34.634
14799,4.185,0.000,3.281,0.000,12.622,0.000,0.000,34.618
14824,4.185,0.000,3.281,0.000,12.622,0.000,0.000,34.661
14849,4.185,0.000,3.281,0.000,12.622,0.000,0.000,34.586
14874,4.185,0.000,3.281,0.000,12.622,0.000,0.000,34.586
14899,4.185,0.000,3.281,0.000,12.622,0.000,0.000,34.623
14924,4.185,0.000,3.281,0.000,12.622,0.000,0.000,34.621
14949,4.185,0.000,3.281,0.000,12.622,0.000,0.000,34.598
14974,4.185,0.000,3.281,0.000,12.622,0.000,0.000,34.620
14999,4.184,0.000,3.281,0.000,12.622,0.000,0.000,34.630
15024,4.184,0.000,3.281,0.000,12.622,0.000,0.000,34.593
15049,4.184,0.000,3.281,0.000,12.622,0.000,0.000,34.580
15074,4.184,0.000,3.281,0.000,12.622,0.000,0.000,34.610
15099,4.184,0.000,3.281,0.000,12.622,0.000,0.000,34.598
15124,4.184,0.000,3.281,0.000,12.622,0.000,0.000,34.621
15149,4.184,0.000,3.281,0.000,12.622,0.000,0.000,34.644
15174,4.184,0.000,3.281,0.000,12.622,0.000,0.000,34.623
15199,4.184,0.000,3.281,0.000,12.622,0.000,0.000,34.608
15224,4.184,0.000,3.281,0.000,12.622,0.000,0.000,34.608
15249,4.184,0.000,3.281,0.000,12.622,0.000,0.000,34.600
15274,4.184,0.000,3.281,0.000,12.622,0.000,0.000,34.623
15299,4.184,0.000,3.281,0.000,12.622,0.000,0.000,34.645
15324,4.184,0.000,3.281,0.000,12.622,0.000,0.000,34.587
15349,4.184,0.000,3.281,0.000,12.622,0.000,0.000,34.630
15374,4.184,0.000,3.281,0.000,12.622,0.000,0.000,34.668
15399,4.184,0.000,3.281,0.000,12.622,0.000,0.000,34.600
15424,4.184,0.000,3.281,0.000,12.622,0.000,0.000,34.608
15449,4.183,0.000,3.281,0.000,12.622,0.000,0.000,34.639
15474,4.184,0.000,3.281,0.000,12.622,0.000,0.000,34.596
15499,4.183,0.000,3.281,0.000,12.622,0.000,0.000,34.608
15524,4.183,0.000,3.281,0.000,12.622,0.000,0.000,34.609
15549,4.183,0.000,3.281,0.000,12.622,0.000,0.000,34.589
15574,4.183,0.000,3.281,0.000,12.622,0.000,0.000,34.607
15599,4.183,0.000,3.281,0.000,12.622,0.000,0.000,34.631
15624,4.183,0.000,3.281,0.000,12.622,0.000,0.000,34.612
15649,4.183,0.000,3.281,0.000,12.622,0.000,0.000,34.631
15674,4.183,0.000,3.281,0.000,12.622,0.000,0.000,34.620
15699,4.183,0.000,3.281,0.000,12.622,0.000,0.000,34.646
15724,4.183,0.000,3.281,0.000,12.622,0.000,0.000,34.649
15749,4.183,0.000,3.281,0.000,12.622,0.000,0.000,34.610
15774,4.183,0.000,3.281,0.000,12.622,0.000,0.000,34.609
15799,4.183,0.000,3.281,0.000,12.622,0.000,0.000,34.614
15824,4.183,0.000,3.281,0.000,12.622,0.000,0.000,34.587
15849,4.183,0.000,3.281,0.000,12.622,0.000,0.000,34.573
15874,4.183,0.000,3.281,0.000,12.622,0.000,0.000,34.589
15899,4.183,0.000,3.281,0.000,12.622,0.000,0.000,34.632
15924,4.183,0.000,3.281,0.000,12.622,0.000,0.000,34.625
15949,4.183,0.000,3.281,0.000,12.622,0.000,0.000,34.604
15974,4.183,0.000,3.281,0.000,12.622,0.000,0.000,34.622
15999,4.183,0.000,3.281,0.000,12.622,0.000,0.000,34.611
16024,4.183,0.000,3.281,0.000,12.622,0.000,0.000,34.590
16049,4.182,0.000,3.281,0.000,12.622,0.000,0.000,34.591
16074,4.182,0.000,3.281,0.000,12.622,0.000,0.000,34.603
16099,4.182,0.000,3.281,0.000,12.622,0.000,0.000,34.624
16124,4.182,0.000,3.281,0.000,12.622,0.000,0.000,34.614
16149,4.182,0.000,3.281,0.000,12.622,0.000,0.000,34.619
16174,4.182,0.000,3.281,0.000,12.622,0.000,0.000,34.595
16199,4.182,0.000,3.281,0.000,12.622,0.000,0.000,34.613
16224,4.182,0.000,3.281,0.000,12.622,0.000,0.000,34.667
16249,4.182,0.000,3.281,0.000,12.622,0.000,0.000,34.643
16274,4.182,0.000,3.281,0.000,12.622,0.000,0.000,34.601
16299,4.182,0.000,3.281,0.000,12.622,0.000,0.000,34.597
16324,4.182,0.000,3.281,0.000,12.622,0.000,0.000,34.615
16349,4.182,0.000,3.281,0.000,12.622,0.000,0.000,34.613
16374,4.182,0.000,3.281,0.000,12.622,0.000,0.000,34.612
16399,4.182,0.000,3.281,0.000,12.622,0.000,0.000,34.625
16424,4.182,0.000,3.281,0.000,12.622,0.000,0.000,34.602
16449,4.182,0.000,3.281,0.000,12.622,0.000,0.000,34.658
16474,4.182,0.000,3.281,0.000,12.622,0.000,0.000,34.636
16499,4.182,0.000,3.281,0.000,12.622,0.000,0.000,34.642
16524,4.182,0.000,3.281,0.000,12.622,0.000,0.000,34.655
16549,4.182,0.000,3.281,0.000,12.622,0.000,0.000,34.594
16574,4.182,0.000,3.281,0.000,12.622,0.000,0.000,34.656
16599,4.182,0.000,3.281,0.000,12.622,0.000,0.000,34.639
16624,4.182,0.000,3.281,0.000,12.622,0.000,0.000,34.627
16649,4.182,0.000,3.281,0.000,12.622,0.000,0.000,34.600
16674,4.182,0.000,3.281,0.000,12.622,0.000,0.000,34.607
16698,3.805,-6.702,3.281,0.030,12.622,0.114,-0.002,34.870
16723,3.767,-6.702,3.281,0.076,12.622,0.290,-0.001,35.428
16748,3.746,-6.701,3.281,0.123,12.622,0.465,-0.001,36.191
16773,3.729,-6.700,3.281,0.169,12.622,0.639,-0.001,36.938
16798,3.715,-6.698,3.281,0.216,12.622,0.812,-0.001,37.644
16823,3.700,-6.699,3.281,0.262,12.622,0.985,-0.001,38.329
16848,3.685,-6.700,3.281,0.309,12.622,1.157,-0.001,38.971
16873,3.670,-6.699,3.281,0.356,12.622,1.328,-0.001,39.624
16898,3.655,-6.699,3.281,0.402,12.622,1.498,-0.001,40.164
16923,3.638,-6.698,3.281,0.449,12.622,1.668,-0.001,40.675
16948,3.622,-6.698,3.281,0.495,12.622,1.836,-0.001,41.212
16973,3.605,-6.697,3.281,0.542,12.622,2.005,-0.001,41.698
16998,3.589,-6.697,3.281,0.588,12.622,2.172,-0.001,42.133
17023,3.573,-6.696,3.281,0.635,12.622,2.338,-0.001,42.543
17048,3.557,-6.697,3.281,0.681,12.622,2.504,-0.001,42.987
17073,3.542,-6.697,3.281,0.728,12.622,2.669,-0.001,43.374
17098,3.526,-6.696,3.281,0.774,12.622,2.834,-0.001,43.781
17123,3.511,-6.696,3.281,0.821,12.622,2.997,0.000,44.105
17148,3.496,-6.696,3.281,0.867,12.622,3.160,-0.001,44.456
17173,3.481,-6.696,3.281,0.914,12.622,3.322,0.000,44.775
17198,3.466,-6.696,3.281,0.960,12.622,3.484,-0.001,45.122
17223,3.451,-6.697,3.281,1.007,12.622,3.645,-0.001,45.570
17248,3.435,-6.698,3.281,1.053,12.622,3.805,-0.001,45.825
17273,3.420,-6.697,3.281,1.100,12.622,3.964,-0.001,46.166
17298,3.405,-6.697,3.281,1.146,12.622,4.123,-0.001,46.396
17323,3.390,-6.696,3.281,1.193,12.622,4.281,-0.001,46.696
17348,3.375,-6.697,3.281,1.239,12.622,4.438,-0.001,47.068
17373,3.360,-6.696,3.281,1.286,12.622,4.595,-0.001,47.378
17398,3.345,-6.696,3.281,1.332,12.622,4.751,-0.001,47.586
17423,3.330,-6.700,3.281,1.379,12.622,4.906,-0.001,47.821
17448,3.316,-6.699,3.281,1.425,12.622,5.060,-0.001,48.148
17473,3.302,-6.699,3.281,1.472,12.622,5.214,-0.001,48.377
17498,3.288,-6.699,3.281,1.518,12.622,5.368,-0.001,48.566
17523,3.274,-6.699,3.281,1.565,12.622,5.520,-0.001,48.767
17548,3.261,-6.700,3.281,1.611,12.622,5.672,0.000,48.989
17573,3.248,-6.699,3.281,1.658,12.622,5.824,0.000,49.265
17598,3.236,-6.699,3.281,1.704,12.622,5.975,-0.001,49.454
17623,3.223,-6.699,3.281,1.751,12.622,6.125,-0.001,49.641
17648,3.211,-6.698,3.281,1.797,12.622,6.274,0.000,49.919
17673,3.199,-6.698,3.281,1.844,12.622,6.423,0.000,50.109
17698,3.187,-6.698,3.281,1.890,12.622,6.572,0.000,50.413
17723,3.176,-6.698,3.281,1.937,12.622,6.720,0.000,50.594
17748,3.164,-6.698,3.281,1.983,12.622,6.867,0.000,50.821
17773,3.153,-6.697,3.281,2.030,12.622,7.014,0.000,50.920
17798,3.141,-6.698,3.281,2.076,12.622,7.161,0.000,51.191
17823,3.129,-6.697,3.281,2.123,12.622,7.307,-0.001,51.397
17848,3.118,-6.698,3.281,2.169,12.622,7.452,0.000,51.652
17873,3.106,-6.697,3.281,2.216,12.622,7.597,-0.001,51.835
17898,3.093,-6.697,3.281,2.262,12.622,7.741,-0.001,52.126
17923,3.081,-6.696,3.281,2.309,12.622,7.884,-0.001,52.353
17948,3.068,-6.697,3.281,2.355,12.622,8.027,-0.001,52.533
17973,3.054,-6.697,3.281,2.402,12.622,8.170,0.000,52.705
17998,3.041,-6.697,3.281,2.449,12.622,8.311,-0.001,52.921
18023,3.027,-6.696,3.281,2.495,12.622,8.452,-0.001,53.176
18048,3.012,-6.696,3.281,2.542,12.622,8.593,-0.001,53.407
18073,2.997,-6.696,3.281,2.588,12.622,8.732,-0.001,53.631
18098,2.981,-6.698,3.281,2.635,12.622,8.871,-0.001,53.724
18123,2.966,-6.697,3.281,2.681,12.622,9.010,-0.001,53.901
18148,2.949,-6.697,3.281,2.728,12.622,9.147,-0.001,54.256
18173,2.933,-6.697,3.281,2.774,12.622,9.284,-0.001,54.411
18198,2.916,-6.697,3.281,2.821,12.622,9.420,-0.001,54.546
18223,2.898,-6.697,3.281,2.867,12.622,9.555,-0.001,54.785
18248,2.880,-6.696,3.281,2.914,12.622,9.690,-0.001,54.922
18273,2.859,-6.696,3.281,2.960,12.622,9.823,-0.001,55.126
18298,2.837,-6.698,3.281,3.007,12.622,9.956,-0.001,55.476
18323,2.812,-6.698,3.281,3.053,12.622,10.087,-0.001,55.769
18348,2.782,-6.697,3.281,3.100,12.622,10.217,-0.001,56.057
18373,2.743,-6.696,3.281,3.146,12.622,10.346,-0.002,56.250
18398,2.687,-6.696,3.281,3.193,12.622,10.472,-0.003,56.763
18423,2.595,-6.698,3.281,3.239,12.622,10.595,-0.005,57.329
18448,2.989,0.000,3.281,3.268,12.622,10.669,0.006,57.736
18473,3.068,0.000,3.281,3.268,12.622,10.669,0.002,56.970
18498,3.097,0.000,3.281,3.268,12.622,10.669,0.001,56.166
18523,3.111,0.000,3.281,3.268,12.622,10.669,0.000,55.027
18548,3.120,0.000,3.281,3.268,12.622,10.669,0.000,53.920
18573,3.125,0.000,3.281,3.268,12.622,10.669,0.000,52.935
18598,3.128,0.000,3.281,3.268,12.622,10.669,0.000,51.934
18623,3.131,0.000,3.281,3.268,12.622,10.669,0.000,51.132
18648,3.133,0.000,3.281,3.268,12.622,10.669,0.000,50.277
18673,3.135,0.000,3.281,3.268,12.622,10.669,0.000,49.307
18698,3.137,0.000,3.281,3.268,12.622,10.669,0.000,48.548
18723,3.138,0.000,3.281,3.268,12.622,10.669,0.000,47.736
18748,3.139,0.000,3.281,3.268,12.622,10.669,0.000,47.181
18773,3.141,0.000,3.281,3.268,12.622,10.669,0.000,46.450
18798,3.142,0.000,3.281,3.268,12.622,10.669,0.000,45.885
18823,3.143,0.000,3.281,3.268,12.622,10.669,0.000,45.253
18848,3.144,0.000,3.281,3.268,12.622,10.669,0.000,44.643
18873,3.145,0.000,3.281,3.268,12.622,10.669,0.000,44.167
18898,3.146,0.000,3.281,3.268,12.622,10.669,0.000,43.588
18923,3.146,0.000,3.281,3.268,12.622,10.669,0.000,43.220
18948,3.147,0.000,3.281,3.268,12.622,10.669,0.000,42.654
18973,3.148,0.000,3.281,3.268,12.622,10.669,0.000,42.269
18998,3.148,0.000,3.281,3.268,12.622,10.669,0.000,41.812
19023,3.149,0.000,3.281,3.268,12.622,10.669,0.000,41.531
19048,3.150,0.000,3.281,3.268,12.622,10.669,0.000,41.120
19073,3.150,0.000,3.281,3.268,12.622,10.669,0.000,40.737
19098,3.151,0.000,3.281,3.268,12.622,10.669,0.000,40.422
19123,3.151,0.000,3.281,3.268,12.622,10.669,0.000,40.118
19148,3.152,0.000,3.281,3.268,12.622,10.669,0.000,39.817
19173,3.152,0.000,3.281,3.268,12.622,10.669,0.000,39.544
19198,3.153,0.000,3.281,3.268,12.622,10.669,0.000,39.297
19223,3.153,0.000,3.281,3.268,12.622,10.669,0.000,38.984
19248,3.154,0.000,3.281,3.268,12.622,10.669,0.000,38.793
19273,3.154,0.000,3.281,3.268,12.622,10.669,0.000,38.614
19298,3.154,0.000,3.281,3.268,12.622,10.669,0.000,38.375
19323,3.155,0.000,3.281,3.268,12.622,10.669,0.000,38.175
19348,3.155,0.000,3.281,3.268,12.622,10.669,0.000,37.942
19373,3.155,0.000,3.281,3.268,12.622,10.669,0.000,37.827
19398,3.156,0.000,3.281,3.268,12.622,10.669,0.000,37.662
19423,3.156,0.000,3.281,3.268,12.622,10.669,0.000,37.500
19448,3.156,0.000,3.281,3.268,12.622,10.669,0.000,37.357
19473,3.157,0.000,3.281,3.268,12.622,10.669,0.000,37.186
19498,3.157,0.000,3.281,3.268,12.622,10.669,0.000,37.043
19523,3.157,0.000,3.281,3.268,12.622,10.669,0.000,36.939
19548,3.157,0.000,3.281,3.268,12.622,10.669,0.000,36.805
19573,3.158,0.000,3.281,3.268,12.622,10.669,0.000,36.709
19598,3.158,0.000,3.281,3.268,12.622,10.669,0.000,36.571
19623,3.158,0.000,3.281,3.268,12.622,10.669,0.000,36.527
19648,3.158,0.000,3.281,3.268,12.622,10.669,0.000,36.355
19673,3.159,0.000,3.281,3.268,12.622,10.669,0.000,36.272
19698,3.159,0.000,3.281,3.268,12.622,10.669,0.000,36.153
19723,3.159,0.000,3.281,3.268,12.622,10.669,0.000,36.112
19748,3.159,0.000,3.281,3.268,12.622,10.669,0.000,36.058
19773,3.159,0.000,3.281,3.268,12.622,10.669,0.000,35.967
19798,3.160,0.000,3.281,3.268,12.622,10.669,0.000,35.850
19823,3.160,0.000,3.281,3.268,12.622,10.669,0.000,35.811
19848,3.160,0.000,3.281,3.268,12.622,10.669,0.000,35.727
19873,3.160,0.000,3.281,3.268,12.622,10.669,0.000,35.691
19898,3.160,0.000,3.281,3.268,12.622,10.669,0.000,35.633
19923,3.160,0.000,3.281,3.268,12.622,10.669,0.000,35.571
19948,3.161,0.000,3.281,3.268,12.622,10.669,0.000,35.518
19973,3.161,0.000,3.281,3.268,12.622,10.669,0.000,35.520
19998,3.161,0.000,3.281,3.268,12.622,10.669,0.000,35.425
20023,3.161,0.000,3.281,3.268,12.622,10.669,0.000,35.384
20048,3.161,0.000,3.281,3.268,12.622,10.669,0.000,35.353
20073,3.161,0.000,3.281,3.268,12.622,10.669,0.000,35.330
20098,3.161,0.000,3.281,3.268,12.622,10.669,0.000,35.281
20123,3.161,0.000,3.281,3.268,12.622,10.669,0.000,35.204
20148,3.162,0.000,3.281,3.268,12.622,10.669,0.000,35.217
20173,3.162,0.000,3.281,3.268,12.622,10.669,0.000,35.215
20198,3.162,0.000,3.281,3.268,12.622,10.669,0.000,35.145
20223,3.162,0.000,3.281,3.268,12.622,10.669,0.000,35.108
20248,3.162,0.000,3.281,3.268,12.622,10.669,0.000,35.117
20273,3.162,0.000,3.281,3.268,12.622,10.669,0.000,35.046
20298,3.162,0.000,3.281,3.268,12.622,10.669,0.000,35.011
20323,3.163,0.000,3.281,3.268,12.622,10.669,0.000,35.038
20348,3.163,0.000,3.281,3.268,12.622,10.669,0.000,34.993
20373,3.163,0.000,3.281,3.268,12.622,10.669,0.000,35.002
20398,3.163,0.000,3.281,3.268,12.622,10.669,0.000,34.966
20423,3.163,0.000,3.281,3.268,12.622,10.669,0.000,34.954
20448,3.163,0.000,3.281,3.268,12.622,10.669,0.000,34.923
20473,3.163,0.000,3.281,3.268,12.622,10.669,0.000,34.947
20498,3.163,0.000,3.281,3.268,12.622,10.669,0.000,34.905
20523,3.163,0.000,3.281,3.268,12.622,10.669,0.000,34.915
20548,3.163,0.000,3.281,3.268,12.622,10.669,0.000,34.853
20573,3.164,0.000,3.281,3.268,12.622,10.669,0.000,34.845
20598,3.164,0.000,3.281,3.268,12.622,10.669,0.000,34.833
20623,3.164,0.000,3.281,3.268,12.622,10.669,0.000,34.827
20648,3.164,0.000,3.281,3.268,12.622,10.669,0.000,34.825
20673,3.164,0.000,3.281,3.268,12.622,10.669,0.000,34.775
20698,3.164,0.000,3.281,3.268,12.622,10.669,0.000,34.814
20723,3.164,0.000,3.281,3.268,12.622,10.669,0.000,34.833
20748,3.164,0.000,3.281,3.268,12.622,10.669,0.000,34.790
20773,3.164,0.000,3.281,3.268,12.622,10.669,0.000,34.803
20798,3.164,0.000,3.281,3.268,12.622,10.669,0.000,34.756
20823,3.164,0.000,3.281,3.268,12.622,10.669,0.000,34.730
20848,3.165,0.000,3.281,3.268,12.622,10.669,0.000,34.760
20873,3.165,0.000,3.281,3.268,12.622,10.669,0.000,34.722
20898,3.165,0.000,3.281,3.268,12.622,10.669,0.000,34.748
20923,3.165,0.000,3.281,3.268,12.622,10.669,0.000,34.729
20948,3.165,0.000,3.281,3.268,12.622,10.669,0.000,34.737
20973,3.165,0.000,3.281,3.268,12.622,10.669,0.000,34.691
20998,3.165,0.000,3.281,3.268,12.622,10.669,0.000,34.712
21023,3.165,0.000,3.281,3.268,12.622,10.669,0.000,34.678
21048,3.165,0.000,3.281,3.268,12.622,10.669,0.000,34.721
21073,3.165,0.000,3.281,3.268,12.622,10.669,0.000,34.719
21098,3.166,0.000,3.281,3.268,12.622,10.669,0.000,34.684
21123,3.165,0.000,3.281,3.268,12.622,10.669,0.000,34.679
21148,3.166,0.000,3.281,3.268,12.622,10.669,0.000,34.718
21173,3.166,0.000,3.281,3.268,12.622,10.669,0.000,34.649
21198,3.166,0.000,3.281,3.268,12.622,10.669,0.000,34.671
21223,3.166,0.000,3.281,3.268,12.622,10.669,0.000,34.678
21248,3.166,0.000,3.281,3.268,12.622,10.669,0.000,34.658
21273,3.166,0.000,3.281,3.268,12.622,10.669,0.000,34.694
21298,3.166,0.000,3.281,3.268,12.622,10.669,0.000,34.658
21323,3.166,0.000,3.281,3.268,12.622,10.669,0.000,34.664
21348,3.166,0.000,3.281,3.268,12.622,10.669,0.000,34.657
21373,3.166,0.000,3.281,3.268,12.622,10.669,0.000,34.637
21398,3.166,0.000,3.281,3.268,12.622,10.669,0.000,34.651
21423,3.166,0.000,3.281,3.268,12.622,10.669,0.000,34.655
21448,3.166,0.000,3.281,3.268,12.622,10.669,0.000,34.686
21473,3.166,0.000,3.281,3.268,12.622,10.669,0.000,34.627
21498,3.167,0.000,3.281,3.268,12.622,10.669,0.000,34.686
21523,3.167,0.000,3.281,3.268,12.622,10.669,0.000,34.664
21548,3.167,0.000,3.281,3.268,12.622,10.669,0.000,34.629
21573,3.167,0.000,3.281,3.268,12.622,10.669,0.000,34.609
21598,3.167,0.000,3.281,3.268,12.622,10.669,0.000,34.638
21623,3.167,0.000,3.281,3.268,12.622,10.669,0.000,34.638
21648,3.167,0.000,3.281,3.268,12.622,10.669,0.000,34.611
21673,3.167,0.000,3.281,3.268,12.622,10.669,0.000,34.644
21698,3.167,0.000,3.281,3.268,12.622,10.669,0.000,34.688
21723,3.167,0.000,3.281,3.268,12.622,10.669,0.000,34.603
21748,3.167,0.000,3.281,3.268,12.622,10.669,0.000,34.644
21773,3.167,0.000,3.281,3.268,12.622,10.669,0.000,34.601
21798,3.167,0.000,3.281,3.268,12.622,10.669,0.000,34.611
21823,3.167,0.000,3.281,3.268,12.622,10.669,0.000,34.647
21848,3.168,0.000,3.281,3.268,12.622,10.669,0.000,34.634
21873,3.168,0.000,3.281,3.268,12.622,10.669,0.000,34.638
21898,3.168,0.000,3.281,3.268,12.622,10.669,0.000,34.608
21923,3.168,0.000,3.281,3.268,12.622,10.669,0.000,34.635
21948,3.168,0.000,3.281,3.268,12.622,10.669,0.000,34.572
21973,3.168,0.000,3.281,3.268,12.622,10.669,0.000,34.673
21998,3.168,0.000,3.281,3.268,12.622,10.669,0.000,34.678
22023,3.168,0.000,3.281,3.268,12.622,10.669,0.000,34.630
22039,3.168,0.000,3.281,3.268,12.622,10.669,0.000,34.617