File: data/T35/2C/5.csv
time_s,voltage_v,current_a,chargecapacity_ah,dischargecapacity_ah,charge_energy_wh,discharge_energy_wh,voltagedot_v_per_s,temp_degc
1,3.178,0.000,0.000,0.000,0.000,0.000,0.000,34.247
26,3.178,0.000,0.000,0.000,0.000,0.000,0.000,34.179
51,3.178,0.000,0.000,0.000,0.000,0.000,0.000,34.220
76,3.178,0.000,0.000,0.000,0.000,0.000,0.000,34.226
101,3.178,0.000,0.000,0.000,0.000,0.000,0.000,34.228
126,3.178,0.000,0.000,0.000,0.000,0.000,0.000,34.214
151,3.178,0.000,0.000,0.000,0.000,0.000,0.000,34.200
176,3.178,0.000,0.000,0.000,0.000,0.000,0.000,34.248
201,3.178,0.000,0.000,0.000,0.000,0.000,0.000,34.257
226,3.178,0.000,0.000,0.000,0.000,0.000,0.000,34.231
251,3.178,0.000,0.000,0.000,0.000,0.000,0.000,34.226
276,3.178,0.000,0.000,0.000,0.000,0.000,0.000,34.183
301,3.178,0.000,0.000,0.000,0.000,0.000,0.000,34.194
326,3.178,0.000,0.000,0.000,0.000,0.000,0.000,34.255
351,3.178,0.000,0.000,0.000,0.000,0.000,0.000,34.236
376,3.178,0.000,0.000,0.000,0.000,0.000,0.000,34.228
401,3.178,0.000,0.000,0.000,0.000,0.000,0.000,34.220
426,3.178,0.000,0.000,0.000,0.000,0.000,0.000,34.254
451,3.178,0.000,0.000,0.000,0.000,0.000,0.000,34.235
476,3.178,0.000,0.000,0.000,0.000,0.000,0.000,34.268
501,3.178,0.000,0.000,0.000,0.000,0.000,0.000,34.257
526,3.178,0.000,0.000,0.000,0.000,0.000,0.000,34.256
551,3.178,0.000,0.000,0.000,0.000,0.000,0.000,34.224
576,3.178,0.000,0.000,0.000,0.000,0.000,0.000,34.213
601,3.178,0.000,0.000,0.000,0.000,0.000,0.000,34.231
626,3.178,0.000,0.000,0.000,0.000,0.000,0.000,34.260
651,3.178,0.000,0.000,0.000,0.000,0.000,0.000,34.230
676,3.178,0.000,0.000,0.000,0.000,0.000,0.000,34.242
701,3.178,0.000,0.000,0.000,0.000,0.000,0.000,34.244
726,3.178,0.000,0.000,0.000,0.000,0.000,0.000,34.227
751,3.178,0.000,0.000,0.000,0.000,0.000,0.000,34.219
776,3.178,0.000,0.000,0.000,0.000,0.000,0.000,34.254
801,3.178,0.000,0.000,0.000,0.000,0.000,0.000,34.219
826,3.178,0.000,0.000,0.000,0.000,0.000,0.000,34.233
851,3.178,0.000,0.000,0.000,0.000,0.000,0.000,34.230
876,3.178,0.000,0.000,0.000,0.000,0.000,0.000,34.228
901,3.178,0.000,0.000,0.000,0.000,0.000,0.000,34.234
926,3.178,0.000,0.000,0.000,0.000,0.000,0.000,34.252
951,3.178,0.000,0.000,0.000,0.000,0.000,0.000,34.226
976,3.178,0.000,0.000,0.000,0.000,0.000,0.000,34.242
1001,3.178,0.000,0.000,0.000,0.000,0.000,0.000,34.213
1026,3.178,0.000,0.000,0.000,0.000,0.000,0.000,34.227
1051,3.179,0.000,0.000,0.000,0.000,0.000,0.000,34.224
1076,3.178,0.000,0.000,0.000,0.000,0.000,0.000,34.229
1101,3.178,0.000,0.000,0.000,0.000,0.000,0.000,34.219
1126,3.178,0.000,0.000,0.000,0.000,0.000,0.000,34.188
1151,3.179,0.000,0.000,0.000,0.000,0.000,0.000,34.221
1176,3.179,0.000,0.000,0.000,0.000,0.000,0.000,34.192
1201,3.179,0.000,0.000,0.000,0.000,0.000,0.000,34.237
1226,3.179,0.000,0.000,0.000,0.000,0.000,0.000,34.242
1251,3.179,0.000,0.000,0.000,0.000,0.000,0.000,34.240
1276,3.179,0.000,0.000,0.000,0.000,0.000,0.000,34.233
1301,3.179,0.000,0.000,0.000,0.000,0.000,0.000,34.243
1326,3.179,0.000,0.000,0.000,0.000,0.000,0.000,34.232
1351,3.179,0.000,0.000,0.000,0.000,0.000,0.000,34.215
1376,3.179,0.000,0.000,0.000,0.000,0.000,0.000,34.253
1401,3.179,0.000,0.000,0.000,0.000,0.000,0.000,34.245
1426,3.179,0.000,0.000,0.000,0.000,0.000,0.000,34.225
1451,3.179,0.000,0.000,0.000,0.000,0.000,0.000,34.254
1476,3.179,0.000,0.000,0.000,0.000,0.000,0.000,34.220
1501,3.179,0.000,0.000,0.000,0.000,0.000,0.000,34.192
1526,3.179,0.000,0.000,0.000,0.000,0.000,0.000,34.262
1551,3.179,0.000,0.000,0.000,0.000,0.000,0.000,34.238
1576,3.179,0.000,0.000,0.000,0.000,0.000,0.000,34.232
1601,3.179,0.000,0.000,0.000,0.000,0.000,0.000,34.293
1626,3.179,0.000,0.000,0.000,0.000,0.000,0.000,34.237
1651,3.179,0.000,0.000,0.000,0.000,0.000,0.000,34.220
1676,3.179,0.000,0.000,0.000,0.000,0.000,0.000,34.221
1701,3.179,0.000,0.000,0.000,0.000,0.000,0.000,34.242
1726,3.179,0.000,0.000,0.000,0.000,0.000,0.000,34.271
1751,3.179,0.000,0.000,0.000,0.000,0.000,0.000,34.252
1776,3.179,0.000,0.000,0.000,0.000,0.000,0.000,34.252
1801,3.179,0.000,0.000,0.000,0.000,0.000,0.000,34.213
1826,3.179,0.000,0.000,0.000,0.000,0.000,0.000,34.242
1851,3.179,0.000,0.000,0.000,0.000,0.000,0.000,34.219
1876,3.179,0.000,0.000,0.000,0.000,0.000,0.000,34.261
1901,3.179,0.000,0.000,0.000,0.000,0.000,0.000,34.223
1926,3.179,0.000,0.000,0.000,0.000,0.000,0.000,34.179
1951,3.179,0.000,0.000,0.000,0.000,0.000,0.000,34.245
1976,3.179,0.000,0.000,0.000,0.000,0.000,0.000,34.220
2001,3.179,0.000,0.000,0.000,0.000,0.000,0.000,34.238
2026,3.179,0.000,0.000,0.000,0.000,0.000,0.000,34.229
2051,3.179,0.000,0.000,0.000,0.000,0.000,0.000,34.218
2076,3.179,0.000,0.000,0.000,0.000,0.000,0.000,34.220
2101,3.179,0.000,0.000,0.000,0.000,0.000,0.000,34.238
2126,3.179,0.000,0.000,0.000,0.000,0.000,0.000,34.227
2151,3.179,0.000,0.000,0.000,0.000,0.000,0.000,34.260
2176,3.179,0.000,0.000,0.000,0.000,0.000,0.000,34.219
2201,3.179,0.000,0.000,0.000,0.000,0.000,0.000,34.225
2226,3.179,0.000,0.000,0.000,0.000,0.000,0.000,34.208
2251,3.179,0.000,0.000,0.000,0.000,0.000,0.000,34.232
2276,3.179,0.000,0.000,0.000,0.000,0.000,0.000,34.259
2301,3.179,0.000,0.000,0.000,0.000,0.000,0.000,34.232
2326,3.179,0.000,0.000,0.000,0.000,0.000,0.000,34.241
2351,3.179,0.000,0.000,0.000,0.000,0.000,0.000,34.217
2376,3.179,0.000,0.000,0.000,0.000,0.000,0.000,34.225
2401,3.179,0.000,0.000,0.000,0.000,0.000,0.000,34.239
2426,3.179,0.000,0.000,0.000,0.000,0.000,0.000,34.222
2451,3.179,0.000,0.000,0.000,0.000,0.000,0.000,34.252
2476,3.179,0.000,0.000,0.000,0.000,0.000,0.000,34.280
2501,3.179,0.000,0.000,0.000,0.000,0.000,0.000,34.242
2526,3.179,0.000,0.000,0.000,0.000,0.000,0.000,34.206
2551,3.179,0.000,0.000,0.000,0.000,0.000,0.000,34.230
2576,3.180,0.000,0.000,0.000,0.000,0.000,0.000,34.226
2601,3.179,0.000,0.000,0.000,0.000,0.000,0.000,34.203
2626,3.179,0.000,0.000,0.000,0.000,0.000,0.000,34.225
2651,3.180,0.000,0.000,0.000,0.000,0.000,0.000,34.205
2676,3.180,0.000,0.000,0.000,0.000,0.000,0.000,34.253
2701,3.180,0.000,0.000,0.000,0.000,0.000,0.000,34.245
2726,3.180,0.000,0.000,0.000,0.000,0.000,0.000,34.213
2751,3.179,0.000,0.000,0.000,0.000,0.000,0.000,34.267
2776,3.179,0.000,0.000,0.000,0.000,0.000,0.000,34.252
2801,3.180,0.000,0.000,0.000,0.000,0.000,0.000,34.211
2826,3.180,0.000,0.000,0.000,0.000,0.000,0.000,34.249
2851,3.180,0.000,0.000,0.000,0.000,0.000,0.000,34.263
2876,3.180,0.000,0.000,0.000,0.000,0.000,0.000,34.237
2901,3.179,0.000,0.000,0.000,0.000,0.000,0.000,34.234
2926,3.180,0.000,0.000,0.000,0.000,0.000,0.000,34.206
2951,3.179,0.000,0.000,0.000,0.000,0.000,0.000,34.257
2976,3.180,0.000,0.000,0.000,0.000,0.000,0.000,34.227
3001,3.180,0.000,0.000,0.000,0.000,0.000,0.000,34.247
3026,3.180,0.000,0.000,0.000,0.000,0.000,0.000,34.243
3051,3.180,0.000,0.000,0.000,0.000,0.000,0.000,34.247
3076,3.180,0.000,0.000,0.000,0.000,0.000,0.000,34.231
3101,3.180,0.000,0.000,0.000,0.000,0.000,0.000,34.233
3126,3.180,0.000,0.000,0.000,0.000,0.000,0.000,34.206
3151,3.180,0.000,0.000,0.000,0.000,0.000,0.000,34.149
3176,3.180,0.000,0.000,0.000,0.000,0.000,0.000,34.213
3201,3.180,0.000,0.000,0.000,0.000,0.000,0.000,34.247
3226,3.180,0.000,0.000,0.000,0.000,0.000,0.000,34.231
3251,3.180,0.000,0.000,0.000,0.000,0.000,0.000,34.223
3276,3.180,0.000,0.000,0.000,0.000,0.000,0.000,34.257
3301,3.180,0.000,0.000,0.000,0.000,0.000,0.000,34.252
3326,3.180,0.000,0.000,0.000,0.000,0.000,0.000,34.249
3351,3.180,0.000,0.000,0.000,0.000,0.000,0.000,34.233
3376,3.180,0.000,0.000,0.000,0.000,0.000,0.000,34.227
3401,3.180,0.000,0.000,0.000,0.000,0.000,0.000,34.277
3426,3.180,0.000,0.000,0.000,0.000,0.000,0.000,34.282
3451,3.180,0.000,0.000,0.000,0.000,0.000,0.000,34.251
3476,3.180,0.000,0.000,0.000,0.000,0.000,0.000,34.217
3501,3.180,0.000,0.000,0.000,0.000,0.000,0.000,34.226
3526,3.180,0.000,0.000,0.000,0.000,0.000,0.000,34.248
3551,3.180,0.000,0.000,0.000,0.000,0.000,0.000,34.185
3576,3.180,0.000,0.000,0.000,0.000,0.000,0.000,34.233
3600,3.180,0.000,0.000,0.000,0.000,0.000,0.000,34.241
3625,3.378,1.625,0.011,0.000,0.038,0.000,0.001,34.192
3650,3.410,1.625,0.023,0.000,0.076,0.000,0.001,34.218
3675,3.435,1.625,0.034,0.000,0.115,0.000,0.001,34.228
3700,3.455,1.625,0.045,0.000,0.154,0.000,0.001,34.234
3725,3.472,1.625,0.056,0.000,0.193,0.000,0.001,34.291
3750,3.482,1.625,0.068,0.000,0.232,0.000,0.000,34.358
3775,3.487,1.625,0.079,0.000,0.271,0.000,0.000,34.412
3800,3.490,1.625,0.090,0.000,0.311,0.000,0.000,34.460
3825,3.491,1.625,0.102,0.000,0.350,0.000,0.000,34.518
3850,3.493,1.625,0.113,0.000,0.390,0.000,0.000,34.581
3875,3.495,1.625,0.124,0.000,0.429,0.000,0.000,34.637
3900,3.497,1.625,0.135,0.000,0.468,0.000,0.000,34.747
3925,3.499,1.625,0.147,0.000,0.508,0.000,0.000,34.822
3950,3.502,1.625,0.158,0.000,0.547,0.000,0.000,34.869
3975,3.504,1.625,0.169,0.000,0.587,0.000,0.000,34.920
4000,3.507,1.625,0.181,0.000,0.627,0.000,0.000,35.060
4025,3.509,1.625,0.192,0.000,0.666,0.000,0.000,35.033
4050,3.512,1.625,0.203,0.000,0.706,0.000,0.000,35.132
4075,3.514,1.625,0.214,0.000,0.745,0.000,0.000,35.181
4100,3.517,1.625,0.226,0.000,0.785,0.000,0.000,35.224
4125,3.519,1.625,0.237,0.000,0.825,0.000,0.000,35.354
4150,3.522,1.625,0.248,0.000,0.865,0.000,0.000,35.336
4175,3.525,1.625,0.260,0.000,0.904,0.000,0.000,35.410
4200,3.527,1.625,0.271,0.000,0.944,0.000,0.000,35.449
4225,3.530,1.625,0.282,0.000,0.984,0.000,0.000,35.518
4250,3.533,1.625,0.293,0.000,1.024,0.000,0.000,35.554
4275,3.535,1.625,0.305,0.000,1.064,0.000,0.000,35.548
4300,3.538,1.625,0.316,0.000,1.104,0.000,0.000,35.579
4325,3.541,1.625,0.327,0.000,1.144,0.000,0.000,35.600
4350,3.544,1.625,0.339,0.000,1.183,0.000,0.000,35.659
4375,3.546,1.625,0.350,0.000,1.224,0.000,0.000,35.670
4400,3.549,1.625,0.361,0.000,1.264,0.000,0.000,35.703
4425,3.552,1.625,0.372,0.000,1.304,0.000,0.000,35.719
4450,3.555,1.625,0.384,0.000,1.344,0.000,0.000,35.783
4475,3.558,1.625,0.395,0.000,1.384,0.000,0.000,35.783
4500,3.561,1.625,0.406,0.000,1.424,0.000,0.000,35.750
4525,3.564,1.625,0.418,0.000,1.464,0.000,0.000,35.801
4550,3.567,1.625,0.429,0.000,1.504,0.000,0.000,35.820
4575,3.570,1.625,0.440,0.000,1.545,0.000,0.000,35.866
4600,3.574,1.625,0.451,0.000,1.585,0.000,0.000,35.867
4625,3.577,1.625,0.463,0.000,1.625,0.000,0.000,35.846
4650,3.581,1.625,0.474,0.000,1.666,0.000,0.000,35.892
4675,3.584,1.625,0.485,0.000,1.706,0.000,0.000,35.870
4700,3.587,1.625,0.497,0.000,1.747,0.000,0.000,35.839
4725,3.590,1.625,0.508,0.000,1.787,0.000,0.000,35.849
4750,3.593,1.625,0.519,0.000,1.828,0.000,0.000,35.846
4775,3.596,1.625,0.530,0.000,1.868,0.000,0.000,35.883
4800,3.599,1.625,0.542,0.000,1.909,0.000,0.000,35.832
4825,3.602,1.625,0.553,0.000,1.950,0.000,0.000,35.853
4850,3.605,1.625,0.564,0.000,1.990,0.000,0.000,35.819
4875,3.608,1.625,0.576,0.000,2.031,0.000,0.000,35.796
4900,3.610,1.625,0.587,0.000,2.072,0.000,0.000,35.843
4925,3.613,1.625,0.598,0.000,2.112,0.000,0.000,35.802
4950,3.615,1.625,0.609,0.000,2.153,0.000,0.000,35.814
4975,3.618,1.625,0.621,0.000,2.194,0.000,0.000,35.822
5000,3.620,1.625,0.632,0.000,2.235,0.000,0.000,35.787
5025,3.622,1.625,0.643,0.000,2.276,0.000,0.000,35.801
5050,3.624,1.625,0.655,0.000,2.317,0.000,0.000,35.828
5075,3.627,1.625,0.666,0.000,2.358,0.000,0.000,35.824
5100,3.629,1.625,0.677,0.000,2.399,0.000,0.000,35.810
5125,3.631,1.625,0.688,0.000,2.439,0.000,0.000,35.792
5150,3.633,1.625,0.700,0.000,2.480,0.000,0.000,35.815
5175,3.635,1.625,0.711,0.000,2.522,0.000,0.000,35.842
5200,3.638,1.625,0.722,0.000,2.563,0.000,0.000,35.834
5225,3.640,1.625,0.734,0.000,2.604,0.000,0.000,35.855
5250,3.642,1.625,0.745,0.000,2.645,0.000,0.000,35.857
5275,3.645,1.625,0.756,0.000,2.686,0.000,0.000,35.809
5300,3.647,1.625,0.767,0.000,2.727,0.000,0.000,35.864
5325,3.649,1.625,0.779,0.000,2.768,0.000,0.000,35.890
5350,3.651,1.625,0.790,0.000,2.809,0.000,0.000,35.874
5375,3.654,1.625,0.801,0.000,2.851,0.000,0.000,35.900
5400,3.656,1.625,0.813,0.000,2.892,0.000,0.000,35.881
5425,3.658,1.625,0.824,0.000,2.933,0.000,0.000,35.889
5450,3.660,1.625,0.835,0.000,2.974,0.000,0.000,35.901
5475,3.663,1.625,0.846,0.000,3.016,0.000,0.000,35.898
5500,3.665,1.625,0.858,0.000,3.057,0.000,0.000,35.904
5525,3.667,1.625,0.869,0.000,3.098,0.000,0.000,35.917
5550,3.670,1.625,0.880,0.000,3.140,0.000,0.000,35.908
5575,3.672,1.625,0.892,0.000,3.181,0.000,0.000,35.895
5600,3.674,1.625,0.903,0.000,3.223,0.000,0.000,35.910
5625,3.677,1.625,0.914,0.000,3.264,0.000,0.000,35.938
5650,3.679,1.625,0.925,0.000,3.306,0.000,0.000,35.939
5675,3.681,1.625,0.937,0.000,3.347,0.000,0.000,35.957
5700,3.684,1.625,0.948,0.000,3.389,0.000,0.000,35.976
5725,3.686,1.625,0.959,0.000,3.430,0.000,0.000,35.979
5750,3.688,1.625,0.971,0.000,3.472,0.000,0.000,36.011
5775,3.690,1.625,0.982,0.000,3.514,0.000,0.000,35.991
5800,3.692,1.625,0.993,0.000,3.555,0.000,0.000,36.004
5825,3.695,1.625,1.004,0.000,3.597,0.000,0.000,36.063
5850,3.697,1.625,1.016,0.000,3.639,0.000,0.000,36.054
5875,3.699,1.625,1.027,0.000,3.680,0.000,0.000,36.050
5900,3.702,1.625,1.038,0.000,3.722,0.000,0.000,36.105
5925,3.704,1.625,1.050,0.000,3.764,0.000,0.000,36.080
5950,3.706,1.625,1.061,0.000,3.806,0.000,0.000,36.087
5975,3.708,1.625,1.072,0.000,3.848,0.000,0.000,36.104
6000,3.710,1.625,1.084,0.000,3.890,0.000,0.000,36.114
6025,3.713,1.625,1.095,0.000,3.931,0.000,0.000,36.150
6050,3.715,1.625,1.106,0.000,3.973,0.000,0.000,36.154
6075,3.717,1.625,1.117,0.000,4.015,0.000,0.000,36.184
6100,3.719,1.625,1.129,0.000,4.057,0.000,0.000,36.155
6125,3.722,1.625,1.140,0.000,4.099,0.000,0.000,36.197
6150,3.724,1.625,1.151,0.000,4.141,0.000,0.000,36.216
6175,3.726,1.625,1.163,0.000,4.183,0.000,0.000,36.197
6200,3.728,1.625,1.174,0.000,4.225,0.000,0.000,36.257
6225,3.730,1.625,1.185,0.000,4.267,0.000,0.000,36.260
6250,3.732,1.625,1.196,0.000,4.310,0.000,0.000,36.223
6275,3.734,1.625,1.208,0.000,4.352,0.000,0.000,36.238
6300,3.736,1.625,1.219,0.000,4.394,0.000,0.000,36.243
6325,3.738,1.625,1.230,0.000,4.436,0.000,0.000,36.269
6350,3.740,1.625,1.242,0.000,4.478,0.000,0.000,36.303
6375,3.742,1.625,1.253,0.000,4.520,0.000,0.000,36.293
6400,3.744,1.625,1.264,0.000,4.563,0.000,0.000,36.296
6425,3.746,1.625,1.275,0.000,4.605,0.000,0.000,36.352
6450,3.748,1.625,1.287,0.000,4.647,0.000,0.000,36.355
6475,3.750,1.625,1.298,0.000,4.690,0.000,0.000,36.326
6500,3.753,1.625,1.309,0.000,4.732,0.000,0.000,36.336
6525,3.755,1.625,1.321,0.000,4.774,0.000,0.000,36.342
6550,3.757,1.625,1.332,0.000,4.817,0.000,0.000,36.361
6575,3.759,1.625,1.343,0.000,4.859,0.000,0.000,36.345
6600,3.761,1.625,1.354,0.000,4.902,0.000,0.000,36.366
6625,3.763,1.625,1.366,0.000,4.944,0.000,0.000,36.379
6650,3.765,1.625,1.377,0.000,4.987,0.000,0.000,36.349
6675,3.767,1.625,1.388,0.000,5.029,0.000,0.000,36.386
6700,3.770,1.625,1.400,0.000,5.072,0.000,0.000,36.380
6725,3.772,1.625,1.411,0.000,5.114,0.000,0.000,36.366
6750,3.774,1.625,1.422,0.000,5.157,0.000,0.000,36.378
6775,3.777,1.625,1.433,0.000,5.199,0.000,0.000,36.369
6800,3.779,1.625,1.445,0.000,5.242,0.000,0.000,36.370
6825,3.781,1.625,1.456,0.000,5.285,0.000,0.000,36.385
6850,3.783,1.625,1.467,0.000,5.327,0.000,0.000,36.393
6875,3.786,1.625,1.479,0.000,5.370,0.000,0.000,36.407
6900,3.788,1.625,1.490,0.000,5.413,0.000,0.000,36.434
6925,3.791,1.625,1.501,0.000,5.456,0.000,0.000,36.387
6950,3.793,1.625,1.512,0.000,5.498,0.000,0.000,36.445
6975,3.796,1.625,1.524,0.000,5.541,0.000,0.000,36.436
7000,3.798,1.625,1.535,0.000,5.584,0.000,0.000,36.412
7025,3.801,1.625,1.546,0.000,5.627,0.000,0.000,36.436
7050,3.803,1.625,1.558,0.000,5.670,0.000,0.000,36.399
7075,3.806,1.625,1.569,0.000,5.713,0.000,0.000,36.412
7100,3.809,1.625,1.580,0.000,5.756,0.000,0.000,36.454
7125,3.811,1.625,1.591,0.000,5.799,0.000,0.000,36.423
7150,3.814,1.625,1.603,0.000,5.842,0.000,0.000,36.414
7175,3.817,1.625,1.614,0.000,5.885,0.000,0.000,36.448
7200,3.820,1.625,1.625,0.000,5.928,0.000,0.000,36.440
7225,3.822,1.625,1.637,0.000,5.971,0.000,0.000,36.420
7250,3.825,1.625,1.648,0.000,6.014,0.000,0.000,36.407
7275,3.828,1.625,1.659,0.000,6.057,0.000,0.000,36.459
7300,3.831,1.625,1.670,0.000,6.101,0.000,0.000,36.430
7325,3.834,1.625,1.682,0.000,6.144,0.000,0.000,36.447
7350,3.837,1.625,1.693,0.000,6.187,0.000,0.000,36.446
7375,3.840,1.625,1.704,0.000,6.230,0.000,0.000,36.455
7400,3.843,1.625,1.716,0.000,6.274,0.000,0.000,36.468
7425,3.846,1.625,1.727,0.000,6.317,0.000,0.000,36.414
7450,3.849,1.625,1.738,0.000,6.361,0.000,0.000,36.444
7475,3.852,1.625,1.749,0.000,6.404,0.000,0.000,36.463
7500,3.855,1.625,1.761,0.000,6.448,0.000,0.000,36.459
7525,3.858,1.625,1.772,0.000,6.491,0.000,0.000,36.471
7550,3.861,1.625,1.783,0.000,6.535,0.000,0.000,36.434
7575,3.864,1.625,1.795,0.000,6.578,0.000,0.000,36.433
7600,3.867,1.625,1.806,0.000,6.622,0.000,0.000,36.476
7625,3.870,1.625,1.817,0.000,6.666,0.000,0.000,36.441
7650,3.873,1.625,1.828,0.000,6.709,0.000,0.000,36.443
7675,3.877,1.625,1.840,0.000,6.753,0.000,0.000,36.443
7700,3.880,1.625,1.851,0.000,6.797,0.000,0.000,36.480
7725,3.883,1.625,1.862,0.000,6.841,0.000,0.000,36.466
7750,3.886,1.625,1.874,0.000,6.884,0.000,0.000,36.476
7775,3.889,1.625,1.885,0.000,6.928,0.000,0.000,36.469
7800,3.892,1.625,1.896,0.000,6.972,0.000,0.000,36.455
7825,3.896,1.625,1.907,0.000,7.016,0.000,0.000,36.407
7850,3.899,1.625,1.919,0.000,7.060,0.000,0.000,36.439
7875,3.902,1.625,1.930,0.000,7.104,0.000,0.000,36.451
7900,3.905,1.625,1.941,0.000,7.148,0.000,0.000,36.443
7925,3.909,1.625,1.953,0.000,7.192,0.000,0.000,36.452
7950,3.912,1.625,1.964,0.000,7.236,0.000,0.000,36.407
7975,3.915,1.625,1.975,0.000,7.281,0.000,0.000,36.429
8000,3.918,1.625,1.986,0.000,7.325,0.000,0.000,36.450
8025,3.921,1.625,1.998,0.000,7.369,0.000,0.000,36.481
8050,3.925,1.625,2.009,0.000,7.413,0.000,0.000,36.442
8075,3.928,1.625,2.020,0.000,7.458,0.000,0.000,36.456
8100,3.931,1.625,2.032,0.000,7.502,0.000,0.000,36.467
8125,3.934,1.625,2.043,0.000,7.546,0.000,0.000,36.394
8150,3.938,1.625,2.054,0.000,7.591,0.000,0.000,36.410
8175,3.941,1.625,2.065,0.000,7.635,0.000,0.000,36.439
8200,3.944,1.625,2.077,0.000,7.680,0.000,0.000,36.440
8225,3.947,1.625,2.088,0.000,7.724,0.000,0.000,36.414
8250,3.950,1.625,2.099,0.000,7.769,0.000,0.000,36.409
8275,3.954,1.625,2.111,0.000,7.813,0.000,0.000,36.413
8300,3.957,1.625,2.122,0.000,7.858,0.000,0.000,36.416
8325,3.960,1.625,2.133,0.000,7.903,0.000,0.000,36.441
8350,3.963,1.625,2.144,0.000,7.948,0.000,0.000,36.401
8375,3.966,1.625,2.156,0.000,7.992,0.000,0.000,36.398
8400,3.970,1.625,2.167,0.000,8.037,0.000,0.000,36.428
8425,3.973,1.625,2.178,0.000,8.082,0.000,0.000,36.445
8450,3.976,1.625,2.190,0.000,8.127,0.000,0.000,36.399
8475,3.979,1.625,2.201,0.000,8.172,0.000,0.000,36.419
8500,3.982,1.625,2.212,0.000,8.217,0.000,0.000,36.319
8525,3.985,1.625,2.223,0.000,8.262,0.000,0.000,36.382
8550,3.988,1.625,2.235,0.000,8.307,0.000,0.000,36.371
8575,3.991,1.625,2.246,0.000,8.352,0.000,0.000,36.333
8600,3.995,1.625,2.257,0.000,8.397,0.000,0.000,36.383
8625,3.998,1.625,2.269,0.000,8.442,0.000,0.000,36.330
8650,4.001,1.625,2.280,0.000,8.487,0.000,0.000,36.348
8675,4.004,1.625,2.291,0.000,8.532,0.000,0.000,36.330
8700,4.007,1.625,2.302,0.000,8.577,0.000,0.000,36.301
8725,4.010,1.625,2.314,0.000,8.622,0.000,0.000,36.296
8750,4.013,1.625,2.325,0.000,8.668,0.000,0.000,36.330
8775,4.017,1.625,2.336,0.000,8.713,0.000,0.000,36.316
8800,4.020,1.625,2.348,0.000,8.758,0.000,0.000,36.353
8825,4.023,1.625,2.359,0.000,8.804,0.000,0.000,36.292
8850,4.026,1.625,2.370,0.000,8.849,0.000,0.000,36.302
8875,4.029,1.625,2.381,0.000,8.895,0.000,0.000,36.319
8900,4.033,1.625,2.393,0.000,8.940,0.000,0.000,36.322
8925,4.036,1.625,2.404,0.000,8.986,0.000,0.000,36.323
8950,4.039,1.625,2.415,0.000,9.031,0.000,0.000,36.334
8975,4.043,1.625,2.427,0.000,9.077,0.000,0.000,36.340
9000,4.046,1.625,2.438,0.000,9.123,0.000,0.000,36.388
9025,4.049,1.625,2.449,0.000,9.168,0.000,0.000,36.365
9050,4.053,1.625,2.460,0.000,9.214,0.000,0.000,36.346
9075,4.056,1.625,2.472,0.000,9.260,0.000,0.000,36.353
9100,4.060,1.625,2.483,0.000,9.305,0.000,0.000,36.365
9125,4.063,1.625,2.494,0.000,9.351,0.000,0.000,36.336
9150,4.067,1.625,2.506,0.000,9.397,0.000,0.000,36.349
9175,4.071,1.625,2.517,0.000,9.443,0.000,0.000,36.355
9200,4.074,1.625,2.528,0.000,9.489,0.000,0.000,36.363
9225,4.078,1.625,2.539,0.000,9.535,0.000,0.000,36.325
9250,4.082,1.625,2.551,0.000,9.581,0.000,0.000,36.393
9275,4.086,1.625,2.562,0.000,9.627,0.000,0.000,36.399
9300,4.090,1.625,2.573,0.000,9.673,0.000,0.000,36.393
9325,4.094,1.625,2.585,0.000,9.720,0.000,0.000,36.381
9350,4.098,1.625,2.596,0.000,9.766,0.000,0.000,36.406
9375,4.102,1.625,2.607,0.000,9.812,0.000,0.000,36.384
9400,4.106,1.625,2.618,0.000,9.858,0.000,0.000,36.456
9425,4.110,1.625,2.630,0.000,9.905,0.000,0.000,36.443
9450,4.115,1.625,2.641,0.000,9.951,0.000,0.000,36.412
9475,4.119,1.625,2.652,0.000,9.998,0.000,0.000,36.439
9500,4.123,1.625,2.664,0.000,10.044,0.000,0.000,36.488
9525,4.128,1.625,2.675,0.000,10.091,0.000,0.000,36.498
9550,4.132,1.625,2.686,0.000,10.137,0.000,0.000,36.466
9575,4.137,1.625,2.697,0.000,10.184,0.000,0.000,36.545
9600,4.141,1.625,2.709,0.000,10.231,0.000,0.000,36.492
9625,4.145,1.625,2.720,0.000,10.277,0.000,0.000,36.513
9650,4.150,1.625,2.731,0.000,10.324,0.000,0.000,36.501
9675,4.155,1.625,2.743,0.000,10.371,0.000,0.000,36.554
9700,4.159,1.625,2.754,0.000,10.418,0.000,0.000,36.537
9725,4.164,1.625,2.765,0.000,10.465,0.000,0.000,36.522
9750,4.168,1.625,2.776,0.000,10.512,0.000,0.000,36.544
9775,4.173,1.625,2.788,0.000,10.559,0.000,0.000,36.519
9800,4.177,1.625,2.799,0.000,10.606,0.000,0.000,36.566
9825,4.182,1.625,2.810,0.000,10.653,0.000,0.000,36.601
9850,4.187,1.625,2.822,0.000,10.701,0.000,0.000,36.569
9875,4.191,1.625,2.833,0.000,10.748,0.000,0.000,36.591
9900,4.195,1.625,2.844,0.000,10.795,0.000,0.000,36.621
9925,4.200,1.625,2.855,0.000,10.843,0.000,0.000,36.602
9949,4.200,1.551,2.866,0.000,10.888,0.000,0.000,36.572
9974,4.200,1.493,2.877,0.000,10.932,0.000,0.000,36.605
9999,4.200,1.445,2.887,0.000,10.975,0.000,0.000,36.595
10024,4.200,1.402,2.897,0.000,11.016,0.000,0.000,36.565
10049,4.200,1.363,2.906,0.000,11.057,0.000,0.000,36.559
10074,4.200,1.326,2.916,0.000,11.096,0.000,0.000,36.532
10099,4.200,1.292,2.925,0.000,11.134,0.000,0.000,36.548
10124,4.200,1.258,2.934,0.000,11.171,0.000,0.000,36.525
10149,4.200,1.227,2.942,0.000,11.207,0.000,0.000,36.515
10174,4.200,1.197,2.951,0.000,11.243,0.000,0.000,36.486
10199,4.200,1.169,2.959,0.000,11.277,0.000,0.000,36.438
10224,4.200,1.141,2.967,0.000,11.311,0.000,0.000,36.417
10249,4.200,1.115,2.975,0.000,11.344,0.000,0.000,36.403
10274,4.200,1.088,2.982,0.000,11.376,0.000,0.000,36.347
10299,4.200,1.065,2.990,0.000,11.407,0.000,0.000,36.339
10324,4.200,1.042,2.997,0.000,11.438,0.000,0.000,36.314
10349,4.200,1.017,3.004,0.000,11.468,0.000,0.000,36.244
10374,4.200,0.995,3.011,0.000,11.497,0.000,0.000,36.199
10399,4.200,0.973,3.018,0.000,11.526,0.000,0.000,36.197
10424,4.200,0.952,3.025,0.000,11.554,0.000,0.000,36.188
10449,4.200,0.932,3.031,0.000,11.581,0.000,0.000,36.142
10474,4.200,0.912,3.038,0.000,11.608,0.000,0.000,36.045
10499,4.200,0.891,3.044,0.000,11.635,0.000,0.000,36.063
10524,4.200,0.871,3.050,0.000,11.660,0.000,0.000,36.032
10549,4.200,0.853,3.056,0.000,11.685,0.000,0.000,36.020
10574,4.200,0.833,3.062,0.000,11.710,0.000,0.000,35.936
10599,4.200,0.815,3.068,0.000,11.734,0.000,0.000,35.924
10624,4.200,0.798,3.073,0.000,11.758,0.000,0.000,35.894
10649,4.200,0.780,3.079,0.000,11.781,0.000,0.000,35.822
10674,4.200,0.762,3.084,0.000,11.803,0.000,0.000,35.782
10699,4.200,0.746,3.089,0.000,11.825,0.000,0.000,35.752
10724,4.200,0.729,3.095,0.000,11.847,0.000,0.000,35.711
10749,4.200,0.712,3.100,0.000,11.868,0.000,0.000,35.728
10774,4.200,0.695,3.104,0.000,11.888,0.000,0.000,35.648
10799,4.200,0.680,3.109,0.000,11.908,0.000,0.000,35.633
10824,4.200,0.663,3.114,0.000,11.928,0.000,0.000,35.581
10849,4.200,0.648,3.118,0.000,11.947,0.000,0.000,35.528
10874,4.200,0.634,3.123,0.000,11.966,0.000,0.000,35.567
10899,4.200,0.617,3.127,0.000,11.984,0.000,0.000,35.474
10924,4.200,0.603,3.131,0.000,12.002,0.000,0.000,35.435
10949,4.200,0.588,3.136,0.000,12.019,0.000,0.000,35.405
10974,4.200,0.574,3.140,0.000,12.036,0.000,0.000,35.420
10999,4.200,0.561,3.144,0.000,12.052,0.000,0.000,35.352
11024,4.200,0.546,3.147,0.000,12.069,0.000,0.000,35.321
11049,4.200,0.532,3.151,0.000,12.084,0.000,0.000,35.357
11074,4.200,0.519,3.155,0.000,12.100,0.000,0.000,35.306
11099,4.200,0.507,3.158,0.000,12.115,0.000,0.000,35.264
11124,4.200,0.493,3.162,0.000,12.129,0.000,0.000,35.244
11149,4.200,0.480,3.165,0.000,12.143,0.000,0.000,35.238
11174,4.200,0.468,3.168,0.000,12.157,0.000,0.000,35.184
11199,4.200,0.456,3.172,0.000,12.171,0.000,0.000,35.157
11224,4.200,0.444,3.175,0.000,12.184,0.000,0.000,35.135
11249,4.200,0.432,3.178,0.000,12.197,0.000,0.000,35.102
11274,4.200,0.421,3.181,0.000,12.209,0.000,0.000,35.019
11299,4.200,0.410,3.184,0.000,12.221,0.000,0.000,35.057
11324,4.200,0.398,3.186,0.000,12.233,0.000,0.000,35.085
11349,4.200,0.387,3.189,0.000,12.244,0.000,0.000,35.003
11374,4.200,0.378,3.192,0.000,12.255,0.000,0.000,35.012
11399,4.200,0.367,3.194,0.000,12.266,0.000,0.000,34.925
11424,4.200,0.357,3.197,0.000,12.277,0.000,0.000,34.947
11449,4.200,0.348,3.199,0.000,12.287,0.000,0.000,34.909
11474,4.200,0.338,3.202,0.000,12.297,0.000,0.000,34.892
11499,4.200,0.328,3.204,0.000,12.307,0.000,0.000,34.912
11524,4.200,0.319,3.206,0.000,12.316,0.000,0.000,34.862
11549,4.200,0.309,3.209,0.000,12.325,0.000,0.000,34.832
11574,4.200,0.301,3.211,0.000,12.334,0.000,0.000,34.829
11599,4.200,0.293,3.213,0.000,12.343,0.000,0.000,34.849
11624,4.200,0.284,3.215,0.000,12.351,0.000,0.000,34.841
11649,4.200,0.277,3.217,0.000,12.360,0.000,0.000,34.746
11674,4.200,0.269,3.219,0.000,12.368,0.000,0.000,34.752
11699,4.200,0.262,3.220,0.000,12.375,0.000,0.000,34.717
11724,4.200,0.255,3.222,0.000,12.383,0.000,0.000,34.731
11749,4.200,0.247,3.224,0.000,12.390,0.000,0.000,34.757
11774,4.200,0.239,3.226,0.000,12.397,0.000,0.000,34.702
11799,4.200,0.233,3.227,0.000,12.404,0.000,0.000,34.698
11824,4.200,0.227,3.229,0.000,12.411,0.000,0.000,34.651
11849,4.200,0.220,3.230,0.000,12.417,0.000,0.000,34.671
11874,4.200,0.214,3.232,0.000,12.424,0.000,0.000,34.654
11899,4.200,0.208,3.233,0.000,12.430,0.000,0.000,34.630
11924,4.200,0.202,3.235,0.000,12.436,0.000,0.000,34.597
11949,4.200,0.196,3.236,0.000,12.442,0.000,0.000,34.633
11974,4.200,0.191,3.238,0.000,12.447,0.000,0.000,34.622
11999,4.200,0.187,3.239,0.000,12.453,0.000,0.000,34.573
12024,4.200,0.180,3.240,0.000,12.458,0.000,0.000,34.558
12049,4.200,0.174,3.241,0.000,12.463,0.000,0.000,34.534
12074,4.200,0.170,3.243,0.000,12.468,0.000,0.000,34.552
12099,4.200,0.166,3.244,0.000,12.473,0.000,0.000,34.521
12124,4.200,0.162,3.245,0.000,12.478,0.000,0.000,34.511
12149,4.200,0.157,3.246,0.000,12.483,0.000,0.000,34.574
12174,4.200,0.152,3.247,0.000,12.487,0.000,0.000,34.511
12199,4.200,0.148,3.248,0.000,12.492,0.000,0.000,34.529
12224,4.200,0.144,3.249,0.000,12.496,0.000,0.000,34.533
12249,4.200,0.140,3.250,0.000,12.500,0.000,0.000,34.483
12274,4.200,0.137,3.251,0.000,12.504,0.000,0.000,34.482
12299,4.200,0.132,3.252,0.000,12.508,0.000,0.000,34.517
12324,4.200,0.130,3.253,0.000,12.512,0.000,0.000,34.482
12349,4.200,0.126,3.254,0.000,12.515,0.000,0.000,34.465
12374,4.200,0.123,3.255,0.000,12.519,0.000,0.000,34.502
12399,4.200,0.119,3.255,0.000,12.523,0.000,0.000,34.455
12424,4.200,0.116,3.256,0.000,12.526,0.000,0.000,34.428
12449,4.200,0.113,3.257,0.000,12.529,0.000,0.000,34.424
12474,4.200,0.110,3.258,0.000,12.533,0.000,0.000,34.421
12499,4.200,0.107,3.259,0.000,12.536,0.000,0.000,34.447
12524,4.200,0.105,3.259,0.000,12.539,0.000,0.000,34.396
12549,4.200,0.101,3.260,0.000,12.542,0.000,0.000,34.411
12574,4.200,0.099,3.261,0.000,12.545,0.000,0.000,34.419
12599,4.200,0.098,3.261,0.000,12.548,0.000,0.000,34.417
12624,4.200,0.095,3.262,0.000,12.550,0.000,0.000,34.410
12649,4.200,0.091,3.263,0.000,12.553,0.000,0.000,34.380
12674,4.200,0.089,3.263,0.000,12.556,0.000,0.000,34.392
12699,4.200,0.088,3.264,0.000,12.558,0.000,0.000,34.338
12724,4.200,0.085,3.265,0.000,12.561,0.000,0.000,34.333
12749,4.200,0.084,3.265,0.000,12.563,0.000,0.000,34.377
12774,4.200,0.081,3.266,0.000,12.566,0.000,0.000,34.332
12799,4.200,0.079,3.266,0.000,12.568,0.000,0.000,34.354
12824,4.200,0.077,3.267,0.000,12.570,0.000,0.000,34.388
12849,4.200,0.075,3.267,0.000,12.572,0.000,0.000,34.374
12874,4.200,0.074,3.268,0.000,12.575,0.000,0.000,34.385
12899,4.200,0.071,3.268,0.000,12.577,0.000,0.000,34.347
12924,4.200,0.070,3.269,0.000,12.579,0.000,0.000,34.353
12949,4.200,0.069,3.269,0.000,12.581,0.000,0.000,34.346
12974,4.200,0.067,3.270,0.000,12.583,0.000,0.000,34.327
12998,4.197,0.000,3.270,0.000,12.584,0.000,0.000,34.352
13023,4.196,0.000,3.270,0.000,12.584,0.000,0.000,34.329
13048,4.195,0.000,3.270,0.000,12.584,0.000,0.000,34.319
13073,4.195,0.000,3.270,0.000,12.584,0.000,0.000,34.318
13098,4.194,0.000,3.270,0.000,12.584,0.000,0.000,34.301
13123,4.194,0.000,3.270,0.000,12.584,0.000,0.000,34.363
13148,4.193,0.000,3.270,0.000,12.584,0.000,0.000,34.315
13173,4.193,0.000,3.270,0.000,12.584,0.000,0.000,34.314
13198,4.192,0.000,3.270,0.000,12.584,0.000,0.000,34.304
13223,4.192,0.000,3.270,0.000,12.584,0.000,0.000,34.357
13248,4.192,0.000,3.270,0.000,12.584,0.000,0.000,34.293
13273,4.192,0.000,3.270,0.000,12.584,0.000,0.000,34.318
13298,4.192,0.000,3.270,0.000,12.584,0.000,0.000,34.350
13323,4.191,0.000,3.270,0.000,12.584,0.000,0.000,34.287
13348,4.191,0.000,3.270,0.000,12.584,0.000,0.000,34.352
13373,4.191,0.000,3.270,0.000,12.584,0.000,0.000,34.314
13398,4.191,0.000,3.270,0.000,12.584,0.000,0.000,34.301
13423,4.191,0.000,3.270,0.000,12.584,0.000,0.000,34.285
13448,4.190,0.000,3.270,0.000,12.584,0.000,0.000,34.293
13473,4.190,0.000,3.270,0.000,12.584,0.000,0.000,34.285
13498,4.190,0.000,3.270,0.000,12.584,0.000,0.000,34.307
13523,4.190,0.000,3.270,0.000,12.584,0.000,0.000,34.294
13548,4.190,0.000,3.270,0.000,12.584,0.000,0.000,34.302
13573,4.190,0.000,3.270,0.000,12.584,0.000,0.000,34.299
13598,4.189,0.000,3.270,0.000,12.584,0.000,0.000,34.265
13623,4.189,0.000,3.270,0.000,12.584,0.000,0.000,34.256
13648,4.189,0.000,3.270,0.000,12.584,0.000,0.000,34.266
13673,4.189,0.000,3.270,0.000,12.584,0.000,0.000,34.263
13698,4.189,0.000,3.270,0.000,12.584,0.000,0.000,34.303
13723,4.189,0.000,3.270,0.000,12.584,0.000,0.000,34.291
13748,4.189,0.000,3.270,0.000,12.584,0.000,0.000,34.270
13773,4.188,0.000,3.270,0.000,12.584,0.000,0.000,34.293
13798,4.188,0.000,3.270,0.000,12.584,0.000,0.000,34.252
13823,4.188,0.000,3.270,0.000,12.584,0.000,0.000,34.286
13848,4.188,0.000,3.270,0.000,12.584,0.000,0.000,34.229
13873,4.188,0.000,3.270,0.000,12.584,0.000,0.000,34.258
13898,4.188,0.000,3.270,0.000,12.584,0.000,0.000,34.307
13923,4.188,0.000,3.270,0.000,12.584,0.000,0.000,34.296
13948,4.188,0.000,3.270,0.000,12.584,0.000,0.000,34.270
13973,4.187,0.000,3.270,0.000,12.584,0.000,0.000,34.267
13998,4.187,0.000,3.270,0.000,12.584,0.000,0.000,34.260
14023,4.187,0.000,3.270,0.000,12.584,0.000,0.000,34.235
14048,4.187,0.000,3.270,0.000,12.584,0.000,0.000,34.265
14073,4.187,0.000,3.270,0.000,12.584,0.000,0.000,34.247
14098,4.187,0.000,3.270,0.000,12.584,0.000,0.000,34.263
14123,4.187,0.000,3.270,0.000,12.584,0.000,0.000,34.256
14148,4.187,0.000,3.270,0.000,12.584,0.000,0.000,34.235
14173,4.187,0.000,3.270,0.000,12.584,0.000,0.000,34.229
14198,4.187,0.000,3.270,0.000,12.584,0.000,0.000,34.217
14223,4.187,0.000,3.270,0.000,12.584,0.000,0.000,34.246
14248,4.186,0.000,3.270,0.000,12.584,0.000,0.000,34.264
14273,4.186,0.000,3.270,0.000,12.584,0.000,0.000,34.277
14298,4.186,0.000,3.270,0.000,12.584,0.000,0.000,34.282
14323,4.186,0.000,3.270,0.000,12.584,0.000,0.000,34.249
14348,4.186,0.000,3.270,0.000,12.584,0.000,0.000,34.273
14373,4.186,0.000,3.270,0.000,12.584,0.000,0.000,34.257
14398,4.186,0.000,3.270,0.000,12.584,0.000,0.000,34.264
14423,4.186,0.000,3.270,0.000,12.584,0.000,0.000,34.258
14448,4.186,0.000,3.270,0.000,12.584,0.000,0.000,34.253
14473,4.186,0.000,3.270,0.000,12.584,0.000,0.000,34.234
14498,4.186,0.000,3.270,0.000,12.584,0.000,0.000,34.294
14523,4.186,0.000,3.270,0.000,12.584,0.000,0.000,34.238
14548,4.186,0.000,3.270,0.000,12.584,0.000,0.000,34.274
14573,4.185,0.000,3.270,0.000,12.584,0.000,0.000,34.255
14598,4.185,0.000,3.270,0.000,12.584,0.000,0.000,34.254
14623,4.185,0.000,3.270,0.000,12.584,0.000,0.000,34.267
14648,4.185,0.000,3.270,0.000,12.584,0.000,0.000,34.245
14673,4.185,0.000,3.270,0.000,12.584,0.000,0.000,34.242
14698,4.185,0.000,3.270,0.000,12.584,0.000,0.000,34.245
14723,4.185,0.000,3.270,0.000,12.584,0.000,0.000,34.239
14748,4.185,0.000,3.270,0.000,12.584,0.000,0.000,34.298
14773,4.185,0.000,3.270,0.000,12.584,0.000,0.000,34.254
14798,4.185,0.000,3.270,0.000,12.584,0.000,0.000,34.237
14823,4.185,0.000,3.270,0.000,12.584,0.000,0.000,34.259
14848,4.185,0.000,3.270,0.000,12.584,0.000,0.000,34.243
14873,4.185,0.000,3.270,0.000,12.584,0.000,0.000,34.279
14898,4.185,0.000,3.270,0.000,12.584,0.000,0.000,34.261
14923,4.185,0.000,3.270,0.000,12.584,0.000,0.000,34.267
14948,4.185,0.000,3.270,0.000,12.584,0.000,0.000,34.240
14973,4.185,0.000,3.270,0.000,12.584,0.000,0.000,34.220
14998,4.184,0.000,3.270,0.000,12.584,0.000,0.000,34.261
15023,4.184,0.000,3.270,0.000,12.584,0.000,0.000,34.226
15048,4.184,0.000,3.270,0.000,12.584,0.000,0.000,34.186
15073,4.184,0.000,3.270,0.000,12.584,0.000,0.000,34.206
15098,4.184,0.000,3.270,0.000,12.584,0.000,0.000,34.302
15123,4.184,0.000,3.270,0.000,12.584,0.000,0.000,34.202
15148,4.184,0.000,3.270,0.000,12.584,0.000,0.000,34.238
15173,4.184,0.000,3.270,0.000,12.584,0.000,0.000,34.264
15198,4.184,0.000,3.270,0.000,12.584,0.000,0.000,34.260
15223,4.184,0.000,3.270,0.000,12.584,0.000,0.000,34.285
15248,4.184,0.000,3.270,0.000,12.584,0.000,0.000,34.282
15273,4.184,0.000,3.270,0.000,12.584,0.000,0.000,34.215
15298,4.184,0.000,3.270,0.000,12.584,0.000,0.000,34.212
15323,4.184,0.000,3.270,0.000,12.584,0.000,0.000,34.266
15348,4.184,0.000,3.270,0.000,12.584,0.000,0.000,34.275
15373,4.184,0.000,3.270,0.000,12.584,0.000,0.000,34.233
15398,4.184,0.000,3.270,0.000,12.584,0.000,0.000,34.256
15423,4.184,0.000,3.270,0.000,12.584,0.000,0.000,34.271
15448,4.183,0.000,3.270,0.000,12.584,0.000,0.000,34.217
15473,4.184,0.000,3.270,0.000,12.584,0.000,0.000,34.266
15498,4.184,0.000,3.270,0.000,12.584,0.000,0.000,34.222
15523,4.183,0.000,3.270,0.000,12.584,0.000,0.000,34.300
15548,4.183,0.000,3.270,0.000,12.584,0.000,0.000,34.204
15573,4.183,0.000,3.270,0.000,12.584,0.000,0.000,34.200
15598,4.183,0.000,3.270,0.000,12.584,0.000,0.000,34.222
15623,4.183,0.000,3.270,0.000,12.584,0.000,0.000,34.232
15648,4.183,0.000,3.270,0.000,12.584,0.000,0.000,34.242
15673,4.183,0.000,3.270,0.000,12.584,0.000,0.000,34.274
15698,4.183,0.000,3.270,0.000,12.584,0.000,0.000,34.202
15723,4.183,0.000,3.270,0.000,12.584,0.000,0.000,34.231
15748,4.183,0.000,3.270,0.000,12.584,0.000,0.000,34.230
15773,4.183,0.000,3.270,0.000,12.584,0.000,0.000,34.231
15798,4.183,0.000,3.270,0.000,12.584,0.000,0.000,34.264
15823,4.183,0.000,3.270,0.000,12.584,0.000,0.000,34.251
15848,4.183,0.000,3.270,0.000,12.584,0.000,0.000,34.291
15873,4.183,0.000,3.270,0.000,12.584,0.000,0.000,34.233
15898,4.183,0.000,3.270,0.000,12.584,0.000,0.000,34.268
15923,4.183,0.000,3.270,0.000,12.584,0.000,0.000,34.201
15948,4.183,0.000,3.270,0.000,12.584,0.000,0.000,34.230
15973,4.183,0.000,3.270,0.000,12.584,0.000,0.000,34.237
15998,4.183,0.000,3.270,0.000,12.584,0.000,0.000,34.264
16023,4.183,0.000,3.270,0.000,12.584,0.000,0.000,34.242
16048,4.183,0.000,3.270,0.000,12.584,0.000,0.000,34.227
16073,4.183,0.000,3.270,0.000,12.584,0.000,0.000,34.264
16098,4.183,0.000,3.270,0.000,12.584,0.000,0.000,34.248
16123,4.182,0.000,3.270,0.000,12.584,0.000,0.000,34.223
16148,4.182,0.000,3.270,0.000,12.584,0.000,0.000,34.244
16173,4.182,0.000,3.270,0.000,12.584,0.000,0.000,34.250
16198,4.182,0.000,3.270,0.000,12.584,0.000,0.000,34.260
16223,4.182,0.000,3.270,0.000,12.584,0.000,0.000,34.220
16248,4.182,0.000,3.270,0.000,12.584,0.000,0.000,34.242
16273,4.182,0.000,3.270,0.000,12.584,0.000,0.000,34.246
16298,4.182,0.000,3.270,0.000,12.584,0.000,0.000,34.234
16323,4.182,0.000,3.270,0.000,12.584,0.000,0.000,34.240
16348,4.182,0.000,3.270,0.000,12.584,0.000,0.000,34.239
16373,4.182,0.000,3.270,0.000,12.584,0.000,0.000,34.248
16398,4.182,0.000,3.270,0.000,12.584,0.000,0.000,34.243
16423,4.182,0.000,3.270,0.000,12.584,0.000,0.000,34.261
16448,4.182,0.000,3.270,0.000,12.584,0.000,0.000,34.260
16473,4.182,0.000,3.270,0.000,12.584,0.000,0.000,34.254
16498,4.182,0.000,3.270,0.000,12.584,0.000,0.000,34.264
16523,4.182,0.000,3.270,0.000,12.584,0.000,0.000,34.237
16548,4.182,0.000,3.270,0.000,12.584,0.000,0.000,34.271
16573,4.182,0.000,3.270,0.000,12.584,0.000,0.000,34.271
16598,3.855,-6.704,3.270,0.004,12.584,0.014,-0.009,34.234
16623,3.780,-6.703,3.270,0.050,12.584,0.192,-0.002,34.616
16648,3.751,-6.703,3.270,0.097,12.584,0.367,-0.001,35.238
16673,3.732,-6.703,3.270,0.143,12.584,0.541,-0.001,36.005
16698,3.716,-6.704,3.270,0.190,12.584,0.714,-0.001,36.882
16723,3.702,-6.701,3.270,0.236,12.584,0.887,-0.001,37.659
16748,3.688,-6.701,3.270,0.283,12.584,1.059,-0.001,38.403
16773,3.674,-6.701,3.270,0.330,12.584,1.230,0.000,39.025
16798,3.659,-6.701,3.270,0.376,12.584,1.401,-0.001,39.764
16823,3.644,-6.702,3.270,0.423,12.584,1.571,-0.001,40.357
16848,3.628,-6.701,3.270,0.469,12.584,1.740,-0.001,40.946
16873,3.612,-6.701,3.270,0.516,12.584,1.908,-0.001,41.472
16898,3.596,-6.701,3.270,0.562,12.584,2.076,-0.001,42.001
16923,3.581,-6.701,3.270,0.609,12.584,2.243,-0.001,42.495
16948,3.565,-6.701,3.270,0.655,12.584,2.409,-0.001,43.105
16973,3.550,-6.701,3.270,0.702,12.584,2.575,-0.001,43.482
16998,3.535,-6.701,3.270,0.748,12.584,2.740,-0.001,43.938
17023,3.520,-6.702,3.270,0.795,12.584,2.904,-0.001,44.363
17048,3.505,-6.701,3.270,0.841,12.584,3.067,0.000,44.769
17073,3.491,-6.701,3.270,0.888,12.584,3.230,-0.001,45.180
17098,3.476,-6.701,3.270,0.935,12.584,3.392,-0.001,45.372
17123,3.461,-6.701,3.270,0.981,12.584,3.554,0.000,45.965
17148,3.446,-6.701,3.270,1.028,12.584,3.715,-0.001,46.149
17173,3.431,-6.701,3.270,1.074,12.584,3.875,-0.001,46.660
17198,3.416,-6.701,3.270,1.121,12.584,4.034,-0.001,47.004
17223,3.401,-6.701,3.270,1.167,12.584,4.192,-0.001,47.273
17248,3.386,-6.701,3.270,1.214,12.584,4.350,-0.001,47.564
17273,3.371,-6.701,3.270,1.260,12.584,4.508,0.000,48.076
17298,3.356,-6.701,3.270,1.307,12.584,4.664,-0.001,48.343
17323,3.342,-6.701,3.270,1.353,12.584,4.820,-0.001,48.745
17348,3.327,-6.701,3.270,1.400,12.584,4.975,-0.001,48.970
17373,3.313,-6.701,3.270,1.446,12.584,5.130,-0.001,49.264
17398,3.299,-6.701,3.270,1.493,12.584,5.283,-0.001,49.449
17423,3.286,-6.701,3.270,1.539,12.584,5.437,0.000,49.883
17448,3.273,-6.701,3.270,1.586,12.584,5.589,-0.001,49.924
17473,3.260,-6.700,3.270,1.633,12.584,5.741,0.000,50.245
17498,3.248,-6.701,3.270,1.679,12.584,5.893,0.000,50.527
17523,3.236,-6.700,3.270,1.726,12.584,6.043,-0.001,50.637
17548,3.224,-6.701,3.270,1.772,12.584,6.194,-0.001,50.974
17573,3.212,-6.700,3.270,1.819,12.584,6.344,0.000,51.223
17598,3.200,-6.700,3.270,1.865,12.584,6.493,0.000,51.409
17623,3.189,-6.700,3.270,1.912,12.584,6.641,0.000,51.681
17648,3.178,-6.700,3.270,1.958,12.584,6.789,-0.001,52.037
17673,3.167,-6.700,3.270,2.005,12.584,6.937,0.000,52.258
17698,3.155,-6.700,3.270,2.051,12.584,7.084,0.000,52.482
17723,3.144,-6.701,3.270,2.098,12.584,7.231,0.000,52.586
17748,3.133,-6.701,3.270,2.144,12.584,7.377,0.000,52.934
17773,3.121,-6.700,3.270,2.191,12.584,7.522,0.000,53.159
17798,3.109,-6.700,3.270,2.237,12.584,7.667,0.000,53.338
17823,3.097,-6.700,3.270,2.284,12.584,7.812,-0.001,53.754
17848,3.085,-6.700,3.270,2.330,12.584,7.955,-0.001,53.870
17873,3.073,-6.700,3.270,2.377,12.584,8.099,-0.001,53.947
17898,3.059,-6.700,3.270,2.424,12.584,8.241,-0.001,54.229
17923,3.046,-6.700,3.270,2.470,12.584,8.383,0.000,54.459
17948,3.032,-6.700,3.270,2.517,12.584,8.525,0.000,54.761
17973,3.018,-6.700,3.270,2.563,12.584,8.666,-0.001,54.761
17998,3.003,-6.700,3.270,2.610,12.584,8.806,0.000,55.123
18023,2.987,-6.700,3.270,2.656,12.584,8.945,-0.001,55.353
18048,2.972,-6.700,3.270,2.703,12.584,9.084,-0.001,55.555
18073,2.956,-6.700,3.270,2.749,12.584,9.222,-0.001,55.777
18098,2.940,-6.700,3.270,2.796,12.584,9.359,-0.001,55.833
18123,2.923,-6.700,3.270,2.842,12.584,9.495,-0.001,56.067
18148,2.905,-6.700,3.270,2.889,12.584,9.631,-0.001,56.299
18173,2.887,-6.700,3.270,2.935,12.584,9.765,-0.001,56.535
18198,2.866,-6.700,3.270,2.982,12.584,9.899,-0.001,56.917
18223,2.843,-6.700,3.270,3.028,12.584,10.032,-0.001,57.104
18248,2.817,-6.699,3.270,3.075,12.584,10.164,-0.001,57.283
18273,2.785,-6.699,3.270,3.121,12.584,10.294,-0.001,57.495
18298,2.740,-6.699,3.270,3.168,12.584,10.423,-0.002,57.710
18323,2.672,-6.700,3.270,3.215,12.584,10.549,-0.004,58.553
18348,2.552,-6.699,3.270,3.261,12.584,10.671,-0.007,58.864
18373,3.018,0.000,3.270,3.274,12.584,10.704,0.003,59.188
18398,3.065,0.000,3.270,3.274,12.584,10.704,0.001,58.437
18423,3.084,0.000,3.270,3.274,12.584,10.704,0.001,57.801
18448,3.093,0.000,3.270,3.274,12.584,10.704,0.000,56.479
18473,3.099,0.000,3.270,3.274,12.584,10.704,0.000,55.474
18498,3.103,0.000,3.270,3.274,12.584,10.704,0.000,54.290
18523,3.106,0.000,3.270,3.274,12.584,10.704,0.000,53.590
18548,3.108,0.000,3.270,3.274,12.584,10.704,0.000,52.565
18573,3.110,0.000,3.270,3.274,12.584,10.704,0.000,51.666
18598,3.111,0.000,3.270,3.274,12.584,10.704,0.000,50.740
18623,3.113,0.000,3.270,3.274,12.584,10.704,0.000,49.908
18648,3.114,0.000,3.270,3.274,12.584,10.704,0.000,49.241
18673,3.115,0.000,3.270,3.274,12.584,10.704,0.000,48.507
18698,3.116,0.000,3.270,3.274,12.584,10.704,0.000,47.763
18723,3.118,0.000,3.270,3.274,12.584,10.704,0.000,47.053
18748,3.119,0.000,3.270,3.274,12.584,10.704,0.000,46.297
18773,3.120,0.000,3.270,3.274,12.584,10.704,0.000,45.776
18798,3.120,0.000,3.270,3.274,12.584,10.704,0.000,45.320
18823,3.121,0.000,3.270,3.274,12.584,10.704,0.000,44.771
18848,3.122,0.000,3.270,3.274,12.584,10.704,0.000,44.237
18873,3.123,0.000,3.270,3.274,12.584,10.704,0.000,43.751
18898,3.124,0.000,3.270,3.274,12.584,10.704,0.000,43.143
18923,3.124,0.000,3.270,3.274,12.584,10.704,0.000,42.681
18948,3.125,0.000,3.270,3.274,12.584,10.704,0.000,42.360
18973,3.126,0.000,3.270,3.274,12.584,10.704,0.000,42.014
18998,3.126,0.000,3.270,3.274,12.584,10.704,0.000,41.599
19023,3.127,0.000,3.270,3.274,12.584,10.704,0.000,41.230
19048,3.127,0.000,3.270,3.274,12.584,10.704,0.000,40.968
19073,3.128,0.000,3.270,3.274,12.584,10.704,0.000,40.585
19098,3.128,0.000,3.270,3.274,12.584,10.704,0.000,40.309
19123,3.129,0.000,3.270,3.274,12.584,10.704,0.000,39.948
19148,3.129,0.000,3.270,3.274,12.584,10.704,0.000,39.709
19173,3.130,0.000,3.270,3.274,12.584,10.704,0.000,39.369
19198,3.130,0.000,3.270,3.274,12.584,10.704,0.000,39.122
19223,3.131,0.000,3.270,3.274,12.584,10.704,0.000,38.919
19248,3.131,0.000,3.270,3.274,12.584,10.704,0.000,38.697
19273,3.132,0.000,3.270,3.274,12.584,10.704,0.000,38.521
19298,3.132,0.000,3.270,3.274,12.584,10.704,0.000,38.271
19323,3.132,0.000,3.270,3.274,12.584,10.704,0.000,38.073
19348,3.133,0.000,3.270,3.274,12.584,10.704,0.000,37.833
19373,3.133,0.000,3.270,3.274,12.584,10.704,0.000,37.726
19398,3.133,0.000,3.270,3.274,12.584,10.704,0.000,37.491
19423,3.134,0.000,3.270,3.274,12.584,10.704,0.000,37.354
19448,3.134,0.000,3.270,3.274,12.584,10.704,0.000,37.203
19473,3.134,0.000,3.270,3.274,12.584,10.704,0.000,37.056
19498,3.135,0.000,3.270,3.274,12.584,10.704,0.000,36.925
19523,3.135,0.000,3.270,3.274,12.584,10.704,0.000,36.799
19548,3.135,0.000,3.270,3.274,12.584,10.704,0.000,36.667
19573,3.135,0.000,3.270,3.274,12.584,10.704,0.000,36.551
19598,3.136,0.000,3.270,3.274,12.584,10.704,0.000,36.430
19623,3.136,0.000,3.270,3.274,12.584,10.704,0.000,36.392
19648,3.136,0.000,3.270,3.274,12.584,10.704,0.000,36.264
19673,3.136,0.000,3.270,3.274,12.584,10.704,0.000,36.130
19698,3.136,0.000,3.270,3.274,12.584,10.704,0.000,36.062
19723,3.137,0.000,3.270,3.274,12.584,10.704,0.000,35.966
19748,3.137,0.000,3.270,3.274,12.584,10.704,0.000,35.905
19773,3.137,0.000,3.270,3.274,12.584,10.704,0.000,35.805
19798,3.137,0.000,3.270,3.274,12.584,10.704,0.000,35.682
19823,3.137,0.000,3.270,3.274,12.584,10.704,0.000,35.629
19848,3.138,0.000,3.270,3.274,12.584,10.704,0.000,35.581
19873,3.138,0.000,3.270,3.274,12.584,10.704,0.000,35.472
19898,3.138,0.000,3.270,3.274,12.584,10.704,0.000,35.444
19923,3.138,0.000,3.270,3.274,12.584,10.704,0.000,35.413
19948,3.138,0.000,3.270,3.274,12.584,10.704,0.000,35.306
19973,3.138,0.000,3.270,3.274,12.584,10.704,0.000,35.252
19998,3.139,0.000,3.270,3.274,12.584,10.704,0.000,35.196
20023,3.139,0.000,3.270,3.274,12.584,10.704,0.000,35.192
20048,3.139,0.000,3.270,3.274,12.584,10.704,0.000,35.142
20073,3.139,0.000,3.270,3.274,12.584,10.704,0.000,35.078
20098,3.139,0.000,3.270,3.274,12.584,10.704,0.000,35.085
20123,3.139,0.000,3.270,3.274,12.584,10.704,0.000,34.978
20148,3.140,0.000,3.270,3.274,12.584,10.704,0.000,34.944
20173,3.140,0.000,3.270,3.274,12.584,10.704,0.000,34.934
20198,3.140,0.000,3.270,3.274,12.584,10.704,0.000,34.895
20223,3.140,0.000,3.270,3.274,12.584,10.704,0.000,34.853
20248,3.140,0.000,3.270,3.274,12.584,10.704,0.000,34.841
20273,3.140,0.000,3.270,3.274,12.584,10.704,0.000,34.877
20298,3.140,0.000,3.270,3.274,12.584,10.704,0.000,34.778
20323,3.140,0.000,3.270,3.274,12.584,10.704,0.000,34.758
20348,3.141,0.000,3.270,3.274,12.584,10.704,0.000,34.776
20373,3.141,0.000,3.270,3.274,12.584,10.704,0.000,34.735
20398,3.141,0.000,3.270,3.274,12.584,10.704,0.000,34.722
20423,3.141,0.000,3.270,3.274,12.584,10.704,0.000,34.640
20448,3.141,0.000,3.270,3.274,12.584,10.704,0.000,34.675
20473,3.141,0.000,3.270,3.274,12.584,10.704,0.000,34.599
20498,3.141,0.000,3.270,3.274,12.584,10.704,0.000,34.620
20523,3.141,0.000,3.270,3.274,12.584,10.704,0.000,34.597
20548,3.141,0.000,3.270,3.274,12.584,10.704,0.000,34.533
20573,3.142,0.000,3.270,3.274,12.584,10.704,0.000,34.578
20598,3.142,0.000,3.270,3.274,12.584,10.704,0.000,34.515
20623,3.142,0.000,3.270,3.274,12.584,10.704,0.000,34.553
20648,3.142,0.000,3.270,3.274,12.584,10.704,0.000,34.544
20673,3.142,0.000,3.270,3.274,12.584,10.704,0.000,34.480
20698,3.142,0.000,3.270,3.274,12.584,10.704,0.000,34.505
20723,3.142,0.000,3.270,3.274,12.584,10.704,0.000,34.486
20748,3.142,0.000,3.270,3.274,12.584,10.704,0.000,34.496
20773,3.142,0.000,3.270,3.274,12.584,10.704,0.000,34.464
20798,3.142,0.000,3.270,3.274,12.584,10.704,0.000,34.454
20823,3.143,0.000,3.270,3.274,12.584,10.704,0.000,34.463
20848,3.143,0.000,3.270,3.274,12.584,10.704,0.000,34.435
20873,3.143,0.000,3.270,3.274,12.584,10.704,0.000,34.437
20898,3.143,0.000,3.270,3.274,12.584,10.704,0.000,34.413
20923,3.143,0.000,3.270,3.274,12.584,10.704,0.000,34.394
20948,3.143,0.000,3.270,3.274,12.584,10.704,0.000,34.431
20973,3.143,0.000,3.270,3.274,12.584,10.704,0.000,34.404
20998,3.143,0.000,3.270,3.274,12.584,10.704,0.000,34.364
21023,3.143,0.000,3.270,3.274,12.584,10.704,0.000,34.372
21048,3.143,0.000,3.270,3.274,12.584,10.704,0.000,34.340
21073,3.143,0.000,3.270,3.274,12.584,10.704,0.000,34.387
21098,3.144,0.000,3.270,3.274,12.584,10.704,0.000,34.379
21123,3.144,0.000,3.270,3.274,12.584,10.704,0.000,34.330
21148,3.144,0.000,3.270,3.274,12.584,10.704,0.000,34.328
21173,3.144,0.000,3.270,3.274,12.584,10.704,0.000,34.331
21198,3.144,0.000,3.270,3.274,12.584,10.704,0.000,34.356
21223,3.144,0.000,3.270,3.274,12.584,10.704,0.000,34.342
21248,3.144,0.000,3.270,3.274,12.584,10.704,0.000,34.353
21273,3.144,0.000,3.270,3.274,12.584,10.704,0.000,34.317
21298,3.144,0.000,3.270,3.274,12.584,10.704,0.000,34.342
21323,3.144,0.000,3.270,3.274,12.584,10.704,0.000,34.274
21348,3.144,0.000,3.270,3.274,12.584,10.704,0.000,34.304
21373,3.144,0.000,3.270,3.274,12.584,10.704,0.000,34.310
21398,3.144,0.000,3.270,3.274,12.584,10.704,0.000,34.353
21423,3.145,0.000,3.270,3.274,12.584,10.704,0.000,34.317
21448,3.145,0.000,3.270,3.274,12.584,10.704,0.000,34.246
21473,3.145,0.000,3.270,3.274,12.584,10.704,0.000,34.302
21498,3.145,0.000,3.270,3.274,12.584,10.704,0.000,34.278
21523,3.145,0.000,3.270,3.274,12.584,10.704,0.000,34.278
21548,3.145,0.000,3.270,3.274,12.584,10.704,0.000,34.290
21573,3.145,0.000,3.270,3.274,12.584,10.704,0.000,34.274
21598,3.145,0.000,3.270,3.274,12.584,10.704,0.000,34.280
21623,3.145,0.000,3.270,3.274,12.584,10.704,0.000,34.305
21648,3.145,0.000,3.270,3.274,12.584,10.704,0.000,34.296
21673,3.145,0.000,3.270,3.274,12.584,10.704,0.000,34.308
21698,3.145,0.000,3.270,3.274,12.584,10.704,0.000,34.290
21723,3.145,0.000,3.270,3.274,12.584,10.704,0.000,34.309
21748,3.146,0.000,3.270,3.274,12.584,10.704,0.000,34.254
21773,3.145,0.000,3.270,3.274,12.584,10.704,0.000,34.283
21798,3.146,0.000,3.270,3.274,12.584,10.704,0.000,34.270
21823,3.146,0.000,3.270,3.274,12.584,10.704,0.000,34.292
21848,3.146,0.000,3.270,3.274,12.584,10.704,0.000,34.282
21873,3.146,0.000,3.270,3.274,12.584,10.704,0.000,34.241
21898,3.146,0.000,3.270,3.274,12.584,10.704,0.000,34.293
21923,3.146,0.000,3.270,3.274,12.584,10.704,0.000,34.301
21948,3.146,0.000,3.270,3.274,12.584,10.704,0.000,34.321
21955,3.146,0.000,3.270,3.274,12.584,10.704,0.000,34.241