File: data/T35/2C/6.csv
time_s,voltage_v,current_a,chargecapacity_ah,dischargecapacity_ah,charge_energy_wh,discharge_energy_wh,voltagedot_v_per_s,temp_degc
1,3.369,0.000,0.000,0.000,0.000,0.000,0.000,34.445
25,3.369,0.000,0.000,0.000,0.000,0.000,0.000,34.445
49,3.369,0.000,0.000,0.000,0.000,0.000,0.000,34.508
73,3.369,0.000,0.000,0.000,0.000,0.000,0.000,34.435
97,3.369,0.000,0.000,0.000,0.000,0.000,0.000,34.484
121,3.369,0.000,0.000,0.000,0.000,0.000,0.000,34.456
145,3.369,0.000,0.000,0.000,0.000,0.000,0.000,34.452
169,3.369,0.000,0.000,0.000,0.000,0.000,0.000,34.475
193,3.369,0.000,0.000,0.000,0.000,0.000,0.000,34.466
217,3.369,0.000,0.000,0.000,0.000,0.000,0.000,34.452
241,3.369,0.000,0.000,0.000,0.000,0.000,0.000,34.418
265,3.369,0.000,0.000,0.000,0.000,0.000,0.000,34.440
289,3.369,0.000,0.000,0.000,0.000,0.000,0.000,34.470
313,3.369,0.000,0.000,0.000,0.000,0.000,0.000,34.511
337,3.369,0.000,0.000,0.000,0.000,0.000,0.000,34.436
361,3.369,0.000,0.000,0.000,0.000,0.000,0.000,34.466
385,3.369,0.000,0.000,0.000,0.000,0.000,0.000,34.459
409,3.369,0.000,0.000,0.000,0.000,0.000,0.000,34.454
433,3.369,0.000,0.000,0.000,0.000,0.000,0.000,34.457
457,3.369,0.000,0.000,0.000,0.000,0.000,0.000,34.469
481,3.369,0.000,0.000,0.000,0.000,0.000,0.000,34.458
505,3.369,0.000,0.000,0.000,0.000,0.000,0.000,34.455
529,3.369,0.000,0.000,0.000,0.000,0.000,0.000,34.486
553,3.369,0.000,0.000,0.000,0.000,0.000,0.000,34.440
577,3.369,0.000,0.000,0.000,0.000,0.000,0.000,34.444
601,3.369,0.000,0.000,0.000,0.000,0.000,0.000,34.432
625,3.369,0.000,0.000,0.000,0.000,0.000,0.000,34.474
649,3.369,0.000,0.000,0.000,0.000,0.000,0.000,34.467
673,3.369,0.000,0.000,0.000,0.000,0.000,0.000,34.467
697,3.369,0.000,0.000,0.000,0.000,0.000,0.000,34.467
721,3.369,0.000,0.000,0.000,0.000,0.000,0.000,34.455
745,3.369,0.000,0.000,0.000,0.000,0.000,0.000,34.414
769,3.369,0.000,0.000,0.000,0.000,0.000,0.000,34.456
793,3.369,0.000,0.000,0.000,0.000,0.000,0.000,34.485
817,3.369,0.000,0.000,0.000,0.000,0.000,0.000,34.431
841,3.369,0.000,0.000,0.000,0.000,0.000,0.000,34.447
865,3.369,0.000,0.000,0.000,0.000,0.000,0.000,34.479
889,3.369,0.000,0.000,0.000,0.000,0.000,0.000,34.453
913,3.369,0.000,0.000,0.000,0.000,0.000,0.000,34.470
937,3.369,0.000,0.000,0.000,0.000,0.000,0.000,34.453
961,3.369,0.000,0.000,0.000,0.000,0.000,0.000,34.480
985,3.369,0.000,0.000,0.000,0.000,0.000,0.000,34.423
1009,3.369,0.000,0.000,0.000,0.000,0.000,0.000,34.439
1033,3.369,0.000,0.000,0.000,0.000,0.000,0.000,34.467
1057,3.369,0.000,0.000,0.000,0.000,0.000,0.000,34.462
1081,3.369,0.000,0.000,0.000,0.000,0.000,0.000,34.450
1105,3.369,0.000,0.000,0.000,0.000,0.000,0.000,34.504
1129,3.369,0.000,0.000,0.000,0.000,0.000,0.000,34.445
1153,3.369,0.000,0.000,0.000,0.000,0.000,0.000,34.477
1177,3.369,0.000,0.000,0.000,0.000,0.000,0.000,34.447
1201,3.369,0.000,0.000,0.000,0.000,0.000,0.000,34.440
1225,3.369,0.000,0.000,0.000,0.000,0.000,0.000,34.469
1249,3.369,0.000,0.000,0.000,0.000,0.000,0.000,34.499
1273,3.369,0.000,0.000,0.000,0.000,0.000,0.000,34.454
1297,3.369,0.000,0.000,0.000,0.000,0.000,0.000,34.497
1321,3.369,0.000,0.000,0.000,0.000,0.000,0.000,34.520
1345,3.369,0.000,0.000,0.000,0.000,0.000,0.000,34.460
1369,3.369,0.000,0.000,0.000,0.000,0.000,0.000,34.476
1393,3.369,0.000,0.000,0.000,0.000,0.000,0.000,34.441
1417,3.369,0.000,0.000,0.000,0.000,0.000,0.000,34.492
1441,3.369,0.000,0.000,0.000,0.000,0.000,0.000,34.469
1465,3.369,0.000,0.000,0.000,0.000,0.000,0.000,34.484
1489,3.369,0.000,0.000,0.000,0.000,0.000,0.000,34.465
1513,3.369,0.000,0.000,0.000,0.000,0.000,0.000,34.476
1537,3.369,0.000,0.000,0.000,0.000,0.000,0.000,34.452
1561,3.369,0.000,0.000,0.000,0.000,0.000,0.000,34.444
1585,3.369,0.000,0.000,0.000,0.000,0.000,0.000,34.471
1609,3.369,0.000,0.000,0.000,0.000,0.000,0.000,34.468
1633,3.369,0.000,0.000,0.000,0.000,0.000,0.000,34.430
1657,3.369,0.000,0.000,0.000,0.000,0.000,0.000,34.472
1681,3.369,0.000,0.000,0.000,0.000,0.000,0.000,34.488
1705,3.369,0.000,0.000,0.000,0.000,0.000,0.000,34.475
1729,3.369,0.000,0.000,0.000,0.000,0.000,0.000,34.458
1753,3.369,0.000,0.000,0.000,0.000,0.000,0.000,34.480
1777,3.369,0.000,0.000,0.000,0.000,0.000,0.000,34.473
1801,3.369,0.000,0.000,0.000,0.000,0.000,0.000,34.469
1825,3.369,0.000,0.000,0.000,0.000,0.000,0.000,34.435
1849,3.369,0.000,0.000,0.000,0.000,0.000,0.000,34.454
1873,3.369,0.000,0.000,0.000,0.000,0.000,0.000,34.455
1897,3.369,0.000,0.000,0.000,0.000,0.000,0.000,34.482
1921,3.369,0.000,0.000,0.000,0.000,0.000,0.000,34.463
1945,3.369,0.000,0.000,0.000,0.000,0.000,0.000,34.486
1969,3.369,0.000,0.000,0.000,0.000,0.000,0.000,34.431
1993,3.369,0.000,0.000,0.000,0.000,0.000,0.000,34.496
2017,3.369,0.000,0.000,0.000,0.000,0.000,0.000,34.453
2041,3.369,0.000,0.000,0.000,0.000,0.000,0.000,34.451
2065,3.369,0.000,0.000,0.000,0.000,0.000,0.000,34.484
2089,3.369,0.000,0.000,0.000,0.000,0.000,0.000,34.462
2113,3.369,0.000,0.000,0.000,0.000,0.000,0.000,34.496
2137,3.369,0.000,0.000,0.000,0.000,0.000,0.000,34.466
2161,3.369,0.000,0.000,0.000,0.000,0.000,0.000,34.494
2185,3.369,0.000,0.000,0.000,0.000,0.000,0.000,34.477
2209,3.369,0.000,0.000,0.000,0.000,0.000,0.000,34.466
2233,3.369,0.000,0.000,0.000,0.000,0.000,0.000,34.486
2257,3.369,0.000,0.000,0.000,0.000,0.000,0.000,34.486
2281,3.369,0.000,0.000,0.000,0.000,0.000,0.000,34.471
2305,3.369,0.000,0.000,0.000,0.000,0.000,0.000,34.473
2329,3.369,0.000,0.000,0.000,0.000,0.000,0.000,34.440
2353,3.369,0.000,0.000,0.000,0.000,0.000,0.000,34.446
2377,3.369,0.000,0.000,0.000,0.000,0.000,0.000,34.475
2401,3.369,0.000,0.000,0.000,0.000,0.000,0.000,34.443
2425,3.369,0.000,0.000,0.000,0.000,0.000,0.000,34.476
2449,3.369,0.000,0.000,0.000,0.000,0.000,0.000,34.456
2473,3.369,0.000,0.000,0.000,0.000,0.000,0.000,34.444
2497,3.369,0.000,0.000,0.000,0.000,0.000,0.000,34.454
2521,3.369,0.000,0.000,0.000,0.000,0.000,0.000,34.500
2545,3.369,0.000,0.000,0.000,0.000,0.000,0.000,34.455
2569,3.369,0.000,0.000,0.000,0.000,0.000,0.000,34.428
2593,3.369,0.000,0.000,0.000,0.000,0.000,0.000,34.497
2617,3.369,0.000,0.000,0.000,0.000,0.000,0.000,34.432
2641,3.369,0.000,0.000,0.000,0.000,0.000,0.000,34.474
2665,3.369,0.000,0.000,0.000,0.000,0.000,0.000,34.469
2689,3.369,0.000,0.000,0.000,0.000,0.000,0.000,34.479
2713,3.369,0.000,0.000,0.000,0.000,0.000,0.000,34.440
2737,3.369,0.000,0.000,0.000,0.000,0.000,0.000,34.485
2761,3.369,0.000,0.000,0.000,0.000,0.000,0.000,34.524
2785,3.369,0.000,0.000,0.000,0.000,0.000,0.000,34.470
2809,3.369,0.000,0.000,0.000,0.000,0.000,0.000,34.438
2833,3.369,0.000,0.000,0.000,0.000,0.000,0.000,34.478
2857,3.369,0.000,0.000,0.000,0.000,0.000,0.000,34.487
2881,3.369,0.000,0.000,0.000,0.000,0.000,0.000,34.461
2905,3.369,0.000,0.000,0.000,0.000,0.000,0.000,34.460
2929,3.369,0.000,0.000,0.000,0.000,0.000,0.000,34.447
2953,3.369,0.000,0.000,0.000,0.000,0.000,0.000,34.443
2977,3.369,0.000,0.000,0.000,0.000,0.000,0.000,34.431
3001,3.369,0.000,0.000,0.000,0.000,0.000,0.000,34.427
3025,3.369,0.000,0.000,0.000,0.000,0.000,0.000,34.440
3049,3.369,0.000,0.000,0.000,0.000,0.000,0.000,34.482
3073,3.369,0.000,0.000,0.000,0.000,0.000,0.000,34.504
3097,3.369,0.000,0.000,0.000,0.000,0.000,0.000,34.469
3121,3.369,0.000,0.000,0.000,0.000,0.000,0.000,34.456
3145,3.369,0.000,0.000,0.000,0.000,0.000,0.000,34.458
3169,3.369,0.000,0.000,0.000,0.000,0.000,0.000,34.443
3193,3.369,0.000,0.000,0.000,0.000,0.000,0.000,34.455
3217,3.369,0.000,0.000,0.000,0.000,0.000,0.000,34.450
3241,3.369,0.000,0.000,0.000,0.000,0.000,0.000,34.439
3265,3.369,0.000,0.000,0.000,0.000,0.000,0.000,34.477
3289,3.369,0.000,0.000,0.000,0.000,0.000,0.000,34.432
3313,3.369,0.000,0.000,0.000,0.000,0.000,0.000,34.441
3337,3.369,0.000,0.000,0.000,0.000,0.000,0.000,34.430
3361,3.369,0.000,0.000,0.000,0.000,0.000,0.000,34.468
3385,3.369,0.000,0.000,0.000,0.000,0.000,0.000,34.484
3409,3.369,0.000,0.000,0.000,0.000,0.000,0.000,34.431
3433,3.369,0.000,0.000,0.000,0.000,0.000,0.000,34.497
3457,3.369,0.000,0.000,0.000,0.000,0.000,0.000,34.451
3481,3.369,0.000,0.000,0.000,0.000,0.000,0.000,34.438
3505,3.369,0.000,0.000,0.000,0.000,0.000,0.000,34.460
3529,3.369,0.000,0.000,0.000,0.000,0.000,0.000,34.458
3553,3.369,0.000,0.000,0.000,0.000,0.000,0.000,34.440
3577,3.369,0.000,0.000,0.000,0.000,0.000,0.000,34.454
3600,3.369,0.000,0.000,0.000,0.000,0.000,0.000,34.466
3624,3.536,1.625,0.011,0.000,0.038,0.000,0.001,34.471
3648,3.547,1.625,0.022,0.000,0.077,0.000,0.000,34.545
3672,3.555,1.625,0.033,0.000,0.115,0.000,0.000,34.598
3696,3.563,1.625,0.043,0.000,0.154,0.000,0.000,34.681
3720,3.569,1.625,0.054,0.000,0.192,0.000,0.000,34.849
3744,3.575,1.625,0.065,0.000,0.231,0.000,0.000,34.853
3768,3.581,1.625,0.076,0.000,0.270,0.000,0.000,34.899
3792,3.586,1.625,0.087,0.000,0.309,0.000,0.000,34.953
3816,3.591,1.625,0.098,0.000,0.347,0.000,0.000,35.040
3840,3.595,1.625,0.108,0.000,0.386,0.000,0.000,35.065
3864,3.600,1.625,0.119,0.000,0.425,0.000,0.000,35.136
3888,3.604,1.625,0.130,0.000,0.464,0.000,0.000,35.129
3912,3.608,1.625,0.141,0.000,0.503,0.000,0.000,35.183
3936,3.613,1.625,0.152,0.000,0.543,0.000,0.000,35.233
3960,3.617,1.625,0.163,0.000,0.582,0.000,0.000,35.273
3984,3.621,1.625,0.173,0.000,0.621,0.000,0.000,35.260
4008,3.625,1.625,0.184,0.000,0.660,0.000,0.000,35.332
4032,3.629,1.625,0.195,0.000,0.700,0.000,0.000,35.348
4056,3.633,1.625,0.206,0.000,0.739,0.000,0.000,35.396
4080,3.636,1.625,0.217,0.000,0.778,0.000,0.000,35.399
4104,3.640,1.625,0.228,0.000,0.818,0.000,0.000,35.394
4128,3.643,1.625,0.238,0.000,0.857,0.000,0.000,35.489
4152,3.646,1.625,0.249,0.000,0.897,0.000,0.000,35.467
4176,3.649,1.625,0.260,0.000,0.936,0.000,0.000,35.538
4200,3.652,1.625,0.271,0.000,0.976,0.000,0.000,35.531
4224,3.655,1.625,0.282,0.000,1.015,0.000,0.000,35.536
4248,3.658,1.625,0.293,0.000,1.055,0.000,0.000,35.567
4272,3.660,1.625,0.303,0.000,1.095,0.000,0.000,35.593
4296,3.663,1.625,0.314,0.000,1.134,0.000,0.000,35.611
4320,3.665,1.625,0.325,0.000,1.174,0.000,0.000,35.638
4344,3.667,1.625,0.336,0.000,1.214,0.000,0.000,35.634
4368,3.670,1.625,0.347,0.000,1.253,0.000,0.000,35.689
4392,3.672,1.625,0.358,0.000,1.293,0.000,0.000,35.696
4416,3.674,1.625,0.368,0.000,1.333,0.000,0.000,35.744
4440,3.677,1.625,0.379,0.000,1.373,0.000,0.000,35.740
4464,3.679,1.625,0.390,0.000,1.413,0.000,0.000,35.775
4488,3.681,1.625,0.401,0.000,1.453,0.000,0.000,35.826
4512,3.684,1.625,0.412,0.000,1.492,0.000,0.000,35.844
4536,3.686,1.625,0.423,0.000,1.532,0.000,0.000,35.870
4560,3.688,1.625,0.433,0.000,1.572,0.000,0.000,35.893
4584,3.691,1.625,0.444,0.000,1.612,0.000,0.000,35.937
4608,3.693,1.625,0.455,0.000,1.652,0.000,0.000,35.946
4632,3.695,1.625,0.466,0.000,1.692,0.000,0.000,35.945
4656,3.697,1.625,0.477,0.000,1.732,0.000,0.000,35.946
4680,3.700,1.625,0.488,0.000,1.772,0.000,0.000,35.996
4704,3.702,1.625,0.498,0.000,1.813,0.000,0.000,35.983
4728,3.705,1.625,0.509,0.000,1.853,0.000,0.000,35.998
4752,3.707,1.625,0.520,0.000,1.893,0.000,0.000,36.048
4776,3.709,1.625,0.531,0.000,1.933,0.000,0.000,36.047
4800,3.711,1.625,0.542,0.000,1.973,0.000,0.000,36.075
4824,3.714,1.625,0.553,0.000,2.013,0.000,0.000,36.132
4848,3.716,1.625,0.563,0.000,2.054,0.000,0.000,36.107
4872,3.718,1.625,0.574,0.000,2.094,0.000,0.000,36.120
4896,3.721,1.625,0.585,0.000,2.134,0.000,0.000,36.151
4920,3.723,1.625,0.596,0.000,2.175,0.000,0.000,36.192
4944,3.725,1.625,0.607,0.000,2.215,0.000,0.000,36.221
4968,3.728,1.625,0.618,0.000,2.255,0.000,0.000,36.217
4992,3.730,1.625,0.628,0.000,2.296,0.000,0.000,36.247
5016,3.732,1.625,0.639,0.000,2.336,0.000,0.000,36.276
5040,3.734,1.625,0.650,0.000,2.377,0.000,0.000,36.292
5064,3.737,1.625,0.661,0.000,2.417,0.000,0.000,36.355
5088,3.739,1.625,0.672,0.000,2.458,0.000,0.000,36.371
5112,3.741,1.625,0.683,0.000,2.498,0.000,0.000,36.344
5136,3.744,1.625,0.693,0.000,2.539,0.000,0.000,36.352
5160,3.746,1.625,0.704,0.000,2.579,0.000,0.000,36.422
5184,3.748,1.625,0.715,0.000,2.620,0.000,0.000,36.436
5208,3.750,1.625,0.726,0.000,2.661,0.000,0.000,36.444
5232,3.753,1.625,0.737,0.000,2.701,0.000,0.000,36.518
5256,3.755,1.625,0.748,0.000,2.742,0.000,0.000,36.480
5280,3.757,1.625,0.759,0.000,2.783,0.000,0.000,36.470
5304,3.759,1.625,0.769,0.000,2.823,0.000,0.000,36.527
5328,3.761,1.625,0.780,0.000,2.864,0.000,0.000,36.527
5352,3.763,1.625,0.791,0.000,2.905,0.000,0.000,36.530
5376,3.766,1.625,0.802,0.000,2.946,0.000,0.000,36.596
5400,3.767,1.625,0.813,0.000,2.986,0.000,0.000,36.601
5424,3.769,1.625,0.824,0.000,3.027,0.000,0.000,36.593
5448,3.771,1.625,0.834,0.000,3.068,0.000,0.000,36.622
5472,3.773,1.625,0.845,0.000,3.109,0.000,0.000,36.706
5496,3.775,1.625,0.856,0.000,3.150,0.000,0.000,36.634
5520,3.777,1.625,0.867,0.000,3.191,0.000,0.000,36.665
5544,3.779,1.625,0.878,0.000,3.232,0.000,0.000,36.714
5568,3.781,1.625,0.889,0.000,3.273,0.000,0.000,36.730
5592,3.783,1.625,0.899,0.000,3.314,0.000,0.000,36.715
5616,3.785,1.625,0.910,0.000,3.355,0.000,0.000,36.754
5640,3.787,1.625,0.921,0.000,3.396,0.000,0.000,36.720
5664,3.789,1.625,0.932,0.000,3.437,0.000,0.000,36.765
5688,3.791,1.625,0.943,0.000,3.478,0.000,0.000,36.777
5712,3.793,1.625,0.954,0.000,3.519,0.000,0.000,36.865
5736,3.795,1.625,0.964,0.000,3.560,0.000,0.000,36.784
5760,3.797,1.625,0.975,0.000,3.601,0.000,0.000,36.780
5784,3.799,1.625,0.986,0.000,3.642,0.000,0.000,36.821
5808,3.801,1.625,0.997,0.000,3.683,0.000,0.000,36.814
5832,3.803,1.625,1.008,0.000,3.725,0.000,0.000,36.836
5856,3.805,1.625,1.019,0.000,3.766,0.000,0.000,36.867
5880,3.808,1.625,1.029,0.000,3.807,0.000,0.000,36.856
5904,3.810,1.625,1.040,0.000,3.848,0.000,0.000,36.874
5928,3.812,1.625,1.051,0.000,3.890,0.000,0.000,36.877
5952,3.814,1.625,1.062,0.000,3.931,0.000,0.000,36.899
5976,3.816,1.625,1.073,0.000,3.972,0.000,0.000,36.895
6000,3.819,1.625,1.084,0.000,4.014,0.000,0.000,36.943
6024,3.821,1.625,1.094,0.000,4.055,0.000,0.000,36.924
6048,3.823,1.625,1.105,0.000,4.097,0.000,0.000,36.894
6072,3.825,1.625,1.116,0.000,4.138,0.000,0.000,36.894
6096,3.828,1.625,1.127,0.000,4.179,0.000,0.000,36.942
6120,3.830,1.625,1.138,0.000,4.221,0.000,0.000,36.951
6144,3.832,1.625,1.149,0.000,4.262,0.000,0.000,36.970
6168,3.835,1.625,1.159,0.000,4.304,0.000,0.000,36.966
6192,3.837,1.625,1.170,0.000,4.346,0.000,0.000,36.933
6216,3.840,1.625,1.181,0.000,4.387,0.000,0.000,36.959
6240,3.842,1.625,1.192,0.000,4.429,0.000,0.000,37.050
6264,3.845,1.625,1.203,0.000,4.470,0.000,0.000,36.948
6288,3.847,1.625,1.214,0.000,4.512,0.000,0.000,36.995
6312,3.850,1.625,1.224,0.000,4.554,0.000,0.000,37.018
6336,3.852,1.625,1.235,0.000,4.596,0.000,0.000,37.056
6360,3.855,1.625,1.246,0.000,4.637,0.000,0.000,37.004
6384,3.858,1.625,1.257,0.000,4.679,0.000,0.000,37.024
6408,3.860,1.625,1.268,0.000,4.721,0.000,0.000,37.030
6432,3.863,1.625,1.279,0.000,4.763,0.000,0.000,37.067
6456,3.866,1.625,1.289,0.000,4.805,0.000,0.000,37.101
6480,3.868,1.625,1.300,0.000,4.846,0.000,0.000,37.057
6504,3.871,1.625,1.311,0.000,4.888,0.000,0.000,37.121
6528,3.874,1.625,1.322,0.000,4.930,0.000,0.000,37.038
6552,3.877,1.625,1.333,0.000,4.972,0.000,0.000,37.036
6576,3.880,1.625,1.344,0.000,5.014,0.000,0.000,37.082
6600,3.883,1.625,1.354,0.000,5.056,0.000,0.000,37.106
6624,3.885,1.625,1.365,0.000,5.099,0.000,0.000,37.113
6648,3.888,1.625,1.376,0.000,5.141,0.000,0.000,37.091
6672,3.892,1.625,1.387,0.000,5.183,0.000,0.000,37.094
6696,3.894,1.625,1.398,0.000,5.225,0.000,0.000,37.165
6720,3.897,1.625,1.409,0.000,5.267,0.000,0.000,37.124
6744,3.901,1.625,1.419,0.000,5.309,0.000,0.000,37.119
6768,3.904,1.625,1.430,0.000,5.352,0.000,0.000,37.133
6792,3.907,1.625,1.441,0.000,5.394,0.000,0.000,37.143
6816,3.910,1.625,1.452,0.000,5.436,0.000,0.000,37.088
6840,3.913,1.625,1.463,0.000,5.479,0.000,0.000,37.108
6864,3.916,1.625,1.474,0.000,5.521,0.000,0.000,37.082
6888,3.919,1.625,1.485,0.000,5.564,0.000,0.000,37.112
6912,3.922,1.625,1.495,0.000,5.606,0.000,0.000,37.129
6936,3.925,1.625,1.506,0.000,5.649,0.000,0.000,37.163
6960,3.928,1.625,1.517,0.000,5.691,0.000,0.000,37.168
6984,3.931,1.625,1.528,0.000,5.734,0.000,0.000,37.113
7008,3.935,1.625,1.539,0.000,5.776,0.000,0.000,37.119
7032,3.938,1.625,1.550,0.000,5.819,0.000,0.000,37.104
7056,3.941,1.625,1.560,0.000,5.862,0.000,0.000,37.106
7080,3.944,1.625,1.571,0.000,5.904,0.000,0.000,37.097
7104,3.947,1.625,1.582,0.000,5.947,0.000,0.000,37.090
7128,3.951,1.625,1.593,0.000,5.990,0.000,0.000,37.165
7152,3.954,1.625,1.604,0.000,6.033,0.000,0.000,37.218
7176,3.957,1.625,1.615,0.000,6.076,0.000,0.000,37.127
7200,3.960,1.625,1.625,0.000,6.119,0.000,0.000,37.123
7224,3.963,1.625,1.636,0.000,6.162,0.000,0.000,37.122
7248,3.967,1.625,1.647,0.000,6.204,0.000,0.000,37.133
7272,3.970,1.625,1.658,0.000,6.247,0.000,0.000,37.147
7296,3.973,1.625,1.669,0.000,6.290,0.000,0.000,37.129
7320,3.976,1.625,1.680,0.000,6.334,0.000,0.000,37.138
7344,3.979,1.625,1.690,0.000,6.377,0.000,0.000,37.113
7368,3.982,1.625,1.701,0.000,6.420,0.000,0.000,37.119
7392,3.986,1.625,1.712,0.000,6.463,0.000,0.000,37.087
7416,3.989,1.625,1.723,0.000,6.506,0.000,0.000,37.128
7440,3.992,1.625,1.734,0.000,6.549,0.000,0.000,37.164
7464,3.995,1.625,1.745,0.000,6.593,0.000,0.000,37.113
7488,3.998,1.625,1.755,0.000,6.636,0.000,0.000,37.164
7512,4.001,1.625,1.766,0.000,6.679,0.000,0.000,37.097
7536,4.005,1.625,1.777,0.000,6.723,0.000,0.000,37.114
7560,4.008,1.625,1.788,0.000,6.766,0.000,0.000,37.148
7584,4.011,1.625,1.799,0.000,6.810,0.000,0.000,37.099
7608,4.014,1.625,1.810,0.000,6.853,0.000,0.000,37.090
7632,4.017,1.625,1.820,0.000,6.897,0.000,0.000,37.096
7656,4.020,1.625,1.831,0.000,6.940,0.000,0.000,37.117
7680,4.023,1.625,1.842,0.000,6.984,0.000,0.000,37.136
7704,4.026,1.625,1.853,0.000,7.027,0.000,0.000,37.100
7728,4.029,1.625,1.864,0.000,7.071,0.000,0.000,37.117
7752,4.033,1.625,1.875,0.000,7.115,0.000,0.000,37.066
7776,4.036,1.625,1.885,0.000,7.158,0.000,0.000,37.093
7800,4.039,1.625,1.896,0.000,7.202,0.000,0.000,37.037
7824,4.042,1.625,1.907,0.000,7.246,0.000,0.000,37.067
7848,4.045,1.625,1.918,0.000,7.290,0.000,0.000,37.112
7872,4.048,1.625,1.929,0.000,7.334,0.000,0.000,37.107
7896,4.051,1.625,1.940,0.000,7.377,0.000,0.000,37.064
7920,4.054,1.625,1.950,0.000,7.421,0.000,0.000,37.084
7944,4.057,1.625,1.961,0.000,7.465,0.000,0.000,37.052
7968,4.060,1.625,1.972,0.000,7.509,0.000,0.000,37.047
7992,4.063,1.625,1.983,0.000,7.553,0.000,0.000,37.086
8016,4.067,1.625,1.994,0.000,7.597,0.000,0.000,37.106
8040,4.070,1.625,2.005,0.000,7.641,0.000,0.000,37.078
8064,4.073,1.625,2.015,0.000,7.686,0.000,0.000,37.095
8088,4.076,1.625,2.026,0.000,7.730,0.000,0.000,37.085
8112,4.079,1.625,2.037,0.000,7.774,0.000,0.000,37.092
8136,4.083,1.625,2.048,0.000,7.818,0.000,0.000,37.105
8160,4.086,1.625,2.059,0.000,7.862,0.000,0.000,37.136
8184,4.089,1.625,2.070,0.000,7.907,0.000,0.000,37.026
8208,4.092,1.625,2.080,0.000,7.951,0.000,0.000,37.061
8232,4.096,1.625,2.091,0.000,7.995,0.000,0.000,37.058
8256,4.099,1.625,2.102,0.000,8.040,0.000,0.000,37.075
8280,4.102,1.625,2.113,0.000,8.084,0.000,0.000,37.075
8304,4.106,1.625,2.124,0.000,8.129,0.000,0.000,37.053
8328,4.109,1.625,2.135,0.000,8.173,0.000,0.000,37.115
8352,4.113,1.625,2.145,0.000,8.218,0.000,0.000,37.103
8376,4.116,1.625,2.156,0.000,8.262,0.000,0.000,37.147
8400,4.120,1.625,2.167,0.000,8.307,0.000,0.000,37.075
8424,4.124,1.625,2.178,0.000,8.352,0.000,0.000,37.096
8448,4.128,1.625,2.189,0.000,8.396,0.000,0.000,37.145
8472,4.131,1.625,2.200,0.000,8.441,0.000,0.000,37.145
8496,4.135,1.625,2.211,0.000,8.486,0.000,0.000,37.113
8520,4.139,1.625,2.221,0.000,8.531,0.000,0.000,37.115
8544,4.143,1.625,2.232,0.000,8.575,0.000,0.000,37.124
8568,4.146,1.625,2.243,0.000,8.620,0.000,0.000,37.155
8592,4.151,1.625,2.254,0.000,8.665,0.000,0.000,37.149
8616,4.155,1.625,2.265,0.000,8.710,0.000,0.000,37.145
8640,4.159,1.625,2.276,0.000,8.755,0.000,0.000,37.123
8664,4.163,1.625,2.286,0.000,8.800,0.000,0.000,37.175
8688,4.167,1.625,2.297,0.000,8.846,0.000,0.000,37.236
8712,4.171,1.625,2.308,0.000,8.891,0.000,0.000,37.197
8736,4.175,1.625,2.319,0.000,8.936,0.000,0.000,37.222
8760,4.180,1.625,2.330,0.000,8.981,0.000,0.000,37.224
8784,4.184,1.625,2.341,0.000,9.027,0.000,0.000,37.255
8808,4.188,1.625,2.351,0.000,9.072,0.000,0.000,37.218
8832,4.193,1.625,2.362,0.000,9.117,0.000,0.000,37.247
8856,4.197,1.625,2.373,0.000,9.163,0.000,0.000,37.224
8880,4.200,1.607,2.384,0.000,9.208,0.000,0.000,37.255
8904,4.200,1.558,2.394,0.000,9.252,0.000,0.000,37.270
8928,4.200,1.516,2.405,0.000,9.295,0.000,0.000,37.271
8952,4.200,1.478,2.415,0.000,9.337,0.000,0.000,37.333
8976,4.200,1.443,2.424,0.000,9.378,0.000,0.000,37.256
9000,4.200,1.410,2.434,0.000,9.418,0.000,0.000,37.280
9024,4.200,1.378,2.443,0.000,9.457,0.000,0.000,37.201
9048,4.200,1.347,2.452,0.000,9.495,0.000,0.000,37.247
9072,4.200,1.317,2.461,0.000,9.532,0.000,0.000,37.201
9096,4.200,1.288,2.470,0.000,9.569,0.000,0.000,37.176
9120,4.200,1.261,2.478,0.000,9.604,0.000,0.000,37.172
9144,4.200,1.234,2.487,0.000,9.639,0.000,0.000,37.171
9168,4.200,1.208,2.495,0.000,9.674,0.000,0.000,37.129
9192,4.200,1.183,2.503,0.000,9.707,0.000,0.000,37.087
9216,4.200,1.158,2.510,0.000,9.740,0.000,0.000,37.033
9240,4.200,1.134,2.518,0.000,9.772,0.000,0.000,37.001
9264,4.200,1.112,2.526,0.000,9.803,0.000,0.000,36.971
9288,4.200,1.089,2.533,0.000,9.834,0.000,0.000,37.000
9312,4.200,1.068,2.540,0.000,9.864,0.000,0.000,36.966
9336,4.200,1.047,2.547,0.000,9.894,0.000,0.000,36.881
9360,4.200,1.027,2.554,0.000,9.923,0.000,0.000,36.825
9384,4.200,1.007,2.561,0.000,9.951,0.000,0.000,36.827
9408,4.200,0.988,2.567,0.000,9.979,0.000,0.000,36.789
9432,4.200,0.970,2.574,0.000,10.007,0.000,0.000,36.760
9456,4.200,0.953,2.580,0.000,10.034,0.000,0.000,36.760
9480,4.200,0.936,2.587,0.000,10.060,0.000,0.000,36.655
9504,4.200,0.919,2.593,0.000,10.086,0.000,0.000,36.652
9528,4.200,0.903,2.599,0.000,10.112,0.000,0.000,36.603
9552,4.200,0.887,2.605,0.000,10.137,0.000,0.000,36.555
9576,4.200,0.872,2.611,0.000,10.161,0.000,0.000,36.546
9600,4.200,0.857,2.617,0.000,10.185,0.000,0.000,36.487
9624,4.200,0.843,2.622,0.000,10.209,0.000,0.000,36.422
9648,4.200,0.830,2.628,0.000,10.233,0.000,0.000,36.357
9672,4.200,0.816,2.633,0.000,10.256,0.000,0.000,36.363
9696,4.200,0.803,2.639,0.000,10.278,0.000,0.000,36.368
9720,4.200,0.790,2.644,0.000,10.301,0.000,0.000,36.325
9744,4.200,0.777,2.649,0.000,10.323,0.000,0.000,36.280
9768,4.200,0.765,2.654,0.000,10.344,0.000,0.000,36.178
9792,4.200,0.753,2.659,0.000,10.365,0.000,0.000,36.235
9816,4.200,0.741,2.664,0.000,10.386,0.000,0.000,36.168
9840,4.200,0.730,2.669,0.000,10.407,0.000,0.000,36.122
9864,4.200,0.718,2.674,0.000,10.427,0.000,0.000,36.123
9888,4.200,0.707,2.679,0.000,10.447,0.000,0.000,36.079
9912,4.200,0.696,2.684,0.000,10.467,0.000,0.000,36.071
9936,4.200,0.685,2.688,0.000,10.486,0.000,0.000,36.008
9960,4.200,0.674,2.693,0.000,10.505,0.000,0.000,36.004
9984,4.200,0.664,2.697,0.000,10.524,0.000,0.000,35.951
10008,4.200,0.653,2.701,0.000,10.542,0.000,0.000,35.919
10032,4.200,0.643,2.706,0.000,10.560,0.000,0.000,35.862
10056,4.200,0.633,2.710,0.000,10.578,0.000,0.000,35.891
10080,4.200,0.623,2.714,0.000,10.596,0.000,0.000,35.814
10104,4.200,0.613,2.718,0.000,10.613,0.000,0.000,35.796
10128,4.200,0.603,2.722,0.000,10.630,0.000,0.000,35.781
10152,4.200,0.594,2.726,0.000,10.647,0.000,0.000,35.761
10176,4.200,0.584,2.730,0.000,10.663,0.000,0.000,35.754
10200,4.200,0.575,2.734,0.000,10.680,0.000,0.000,35.693
10224,4.200,0.565,2.738,0.000,10.696,0.000,0.000,35.668
10248,4.200,0.556,2.742,0.000,10.711,0.000,0.000,35.693
10272,4.200,0.547,2.745,0.000,10.727,0.000,0.000,35.630
10296,4.200,0.538,2.749,0.000,10.742,0.000,0.000,35.600
10320,4.200,0.529,2.753,0.000,10.757,0.000,0.000,35.577
10344,4.200,0.520,2.756,0.000,10.771,0.000,0.000,35.563
10368,4.200,0.511,2.760,0.000,10.786,0.000,0.000,35.573
10392,4.200,0.502,2.763,0.000,10.800,0.000,0.000,35.484
10416,4.200,0.494,2.766,0.000,10.814,0.000,0.000,35.540
10440,4.200,0.486,2.769,0.000,10.828,0.000,0.000,35.513
10464,4.200,0.477,2.773,0.000,10.841,0.000,0.000,35.448
10488,4.200,0.469,2.776,0.000,10.855,0.000,0.000,35.450
10512,4.200,0.461,2.779,0.000,10.868,0.000,0.000,35.416
10536,4.200,0.452,2.782,0.000,10.880,0.000,0.000,35.398
10560,4.200,0.444,2.785,0.000,10.893,0.000,0.000,35.387
10584,4.200,0.437,2.788,0.000,10.905,0.000,0.000,35.339
10608,4.200,0.429,2.791,0.000,10.917,0.000,0.000,35.376
10632,4.200,0.421,2.794,0.000,10.929,0.000,0.000,35.356
10656,4.200,0.413,2.796,0.000,10.941,0.000,0.000,35.290
10680,4.200,0.406,2.799,0.000,10.952,0.000,0.000,35.295
10704,4.200,0.399,2.802,0.000,10.964,0.000,0.000,35.292
10728,4.200,0.391,2.804,0.000,10.975,0.000,0.000,35.254
10752,4.200,0.384,2.807,0.000,10.986,0.000,0.000,35.262
10776,4.200,0.376,2.810,0.000,10.996,0.000,0.000,35.226
10800,4.200,0.369,2.812,0.000,11.007,0.000,0.000,35.228
10824,4.200,0.362,2.814,0.000,11.017,0.000,0.000,35.213
10848,4.200,0.355,2.817,0.000,11.027,0.000,0.000,35.168
10872,4.200,0.348,2.819,0.000,11.037,0.000,0.000,35.202
10896,4.200,0.342,2.822,0.000,11.046,0.000,0.000,35.198
10920,4.200,0.335,2.824,0.000,11.056,0.000,0.000,35.083
10944,4.200,0.328,2.826,0.000,11.065,0.000,0.000,35.122
10968,4.200,0.322,2.828,0.000,11.074,0.000,0.000,35.093
10992,4.200,0.316,2.830,0.000,11.083,0.000,0.000,35.065
11016,4.200,0.309,2.832,0.000,11.092,0.000,0.000,35.055
11040,4.200,0.303,2.834,0.000,11.100,0.000,0.000,35.072
11064,4.200,0.297,2.836,0.000,11.109,0.000,0.000,35.055
11088,4.200,0.291,2.838,0.000,11.117,0.000,0.000,35.045
11112,4.200,0.285,2.840,0.000,11.125,0.000,0.000,35.021
11136,4.200,0.279,2.842,0.000,11.133,0.000,0.000,35.017
11160,4.200,0.274,2.844,0.000,11.141,0.000,0.000,35.037
11184,4.200,0.267,2.846,0.000,11.148,0.000,0.000,35.012
11208,4.200,0.262,2.848,0.000,11.156,0.000,0.000,34.963
11232,4.200,0.257,2.849,0.000,11.163,0.000,0.000,34.957
11256,4.200,0.251,2.851,0.000,11.170,0.000,0.000,34.972
11280,4.200,0.246,2.853,0.000,11.177,0.000,0.000,34.936
11304,4.200,0.241,2.854,0.000,11.184,0.000,0.000,34.939
11328,4.200,0.236,2.856,0.000,11.190,0.000,0.000,34.905
11352,4.200,0.231,2.857,0.000,11.197,0.000,0.000,34.926
11376,4.200,0.226,2.859,0.000,11.203,0.000,0.000,34.892
11400,4.200,0.221,2.860,0.000,11.210,0.000,0.000,34.924
11424,4.200,0.217,2.862,0.000,11.216,0.000,0.000,34.902
11448,4.200,0.212,2.863,0.000,11.222,0.000,0.000,34.856
11472,4.200,0.207,2.865,0.000,11.228,0.000,0.000,34.875
11496,4.200,0.203,2.866,0.000,11.233,0.000,0.000,34.851
11520,4.200,0.199,2.867,0.000,11.239,0.000,0.000,34.858
11544,4.200,0.194,2.869,0.000,11.245,0.000,0.000,34.837
11568,4.200,0.191,2.870,0.000,11.250,0.000,0.000,34.840
11592,4.200,0.187,2.871,0.000,11.255,0.000,0.000,34.828
11616,4.200,0.182,2.872,0.000,11.260,0.000,0.000,34.819
11640,4.200,0.179,2.874,0.000,11.265,0.000,0.000,34.794
11664,4.200,0.175,2.875,0.000,11.270,0.000,0.000,34.794
11688,4.200,0.171,2.876,0.000,11.275,0.000,0.000,34.783
11712,4.200,0.167,2.877,0.000,11.280,0.000,0.000,34.773
11736,4.200,0.164,2.878,0.000,11.285,0.000,0.000,34.830
11760,4.200,0.160,2.879,0.000,11.289,0.000,0.000,34.792
11784,4.200,0.157,2.880,0.000,11.294,0.000,0.000,34.794
11808,4.200,0.154,2.881,0.000,11.298,0.000,0.000,34.793
11832,4.200,0.150,2.882,0.000,11.302,0.000,0.000,34.752
11856,4.200,0.147,2.883,0.000,11.306,0.000,0.000,34.766
11880,4.200,0.144,2.884,0.000,11.310,0.000,0.000,34.735
11904,4.200,0.141,2.885,0.000,11.314,0.000,0.000,34.712
11928,4.200,0.138,2.886,0.000,11.318,0.000,0.000,34.737
11952,4.200,0.135,2.887,0.000,11.322,0.000,0.000,34.718
11976,4.200,0.132,2.888,0.000,11.326,0.000,0.000,34.670
12000,4.200,0.129,2.889,0.000,11.329,0.000,0.000,34.678
12024,4.200,0.127,2.890,0.000,11.333,0.000,0.000,34.699
12048,4.200,0.124,2.891,0.000,11.337,0.000,0.000,34.737
12072,4.200,0.121,2.891,0.000,11.340,0.000,0.000,34.709
12096,4.200,0.119,2.892,0.000,11.343,0.000,0.000,34.701
12120,4.200,0.116,2.893,0.000,11.347,0.000,0.000,34.703
12144,4.200,0.114,2.894,0.000,11.350,0.000,0.000,34.663
12168,4.200,0.112,2.895,0.000,11.353,0.000,0.000,34.644
12192,4.200,0.108,2.895,0.000,11.356,0.000,0.000,34.625
12216,4.200,0.107,2.896,0.000,11.359,0.000,0.000,34.644
12240,4.200,0.104,2.897,0.000,11.362,0.000,0.000,34.644
12264,4.200,0.102,2.897,0.000,11.365,0.000,0.000,34.667
12288,4.200,0.100,2.898,0.000,11.368,0.000,0.000,34.631
12312,4.200,0.098,2.899,0.000,11.371,0.000,0.000,34.676
12336,4.200,0.097,2.899,0.000,11.373,0.000,0.000,34.655
12360,4.200,0.094,2.900,0.000,11.376,0.000,0.000,34.634
12384,4.200,0.093,2.901,0.000,11.379,0.000,0.000,34.622
12408,4.200,0.090,2.901,0.000,11.381,0.000,0.000,34.606
12432,4.200,0.088,2.902,0.000,11.384,0.000,0.000,34.625
12456,4.200,0.087,2.902,0.000,11.386,0.000,0.000,34.640
12480,4.200,0.085,2.903,0.000,11.388,0.000,0.000,34.635
12504,4.200,0.084,2.904,0.000,11.391,0.000,0.000,34.602
12528,4.200,0.081,2.904,0.000,11.393,0.000,0.000,34.606
12552,4.200,0.080,2.905,0.000,11.395,0.000,0.000,34.584
12576,4.200,0.079,2.905,0.000,11.398,0.000,0.000,34.631
12600,4.200,0.077,2.906,0.000,11.400,0.000,0.000,34.651
12624,4.200,0.075,2.906,0.000,11.402,0.000,0.000,34.613
12648,4.200,0.073,2.907,0.000,11.404,0.000,0.000,34.600
12672,4.200,0.072,2.907,0.000,11.406,0.000,0.000,34.586
12696,4.200,0.071,2.908,0.000,11.408,0.000,0.000,34.569
12720,4.200,0.070,2.908,0.000,11.410,0.000,0.000,34.613
12744,4.200,0.068,2.909,0.000,11.412,0.000,0.000,34.644
12768,4.200,0.067,2.909,0.000,11.414,0.000,0.000,34.668
12792,4.200,0.066,2.909,0.000,11.416,0.000,0.000,34.584
12815,4.194,0.000,2.910,0.000,11.416,0.000,0.000,34.614
12839,4.193,0.000,2.910,0.000,11.416,0.000,0.000,34.568
12863,4.193,0.000,2.910,0.000,11.416,0.000,0.000,34.534
12887,4.193,0.000,2.910,0.000,11.416,0.000,0.000,34.600
12911,4.192,0.000,2.910,0.000,11.416,0.000,0.000,34.552
12935,4.192,0.000,2.910,0.000,11.416,0.000,0.000,34.553
12959,4.191,0.000,2.910,0.000,11.416,0.000,0.000,34.585
12983,4.191,0.000,2.910,0.000,11.416,0.000,0.000,34.557
13007,4.191,0.000,2.910,0.000,11.416,0.000,0.000,34.573
13031,4.191,0.000,2.910,0.000,11.416,0.000,0.000,34.567
13055,4.191,0.000,2.910,0.000,11.416,0.000,0.000,34.540
13079,4.190,0.000,2.910,0.000,11.416,0.000,0.000,34.512
13103,4.190,0.000,2.910,0.000,11.416,0.000,0.000,34.545
13127,4.190,0.000,2.910,0.000,11.416,0.000,0.000,34.549
13151,4.190,0.000,2.910,0.000,11.416,0.000,0.000,34.519
13175,4.189,0.000,2.910,0.000,11.416,0.000,0.000,34.559
13199,4.189,0.000,2.910,0.000,11.416,0.000,0.000,34.544
13223,4.189,0.000,2.910,0.000,11.416,0.000,0.000,34.515
13247,4.189,0.000,2.910,0.000,11.416,0.000,0.000,34.492
13271,4.189,0.000,2.910,0.000,11.416,0.000,0.000,34.508
13295,4.189,0.000,2.910,0.000,11.416,0.000,0.000,34.537
13319,4.189,0.000,2.910,0.000,11.416,0.000,0.000,34.553
13343,4.188,0.000,2.910,0.000,11.416,0.000,0.000,34.503
13367,4.188,0.000,2.910,0.000,11.416,0.000,0.000,34.505
13391,4.188,0.000,2.910,0.000,11.416,0.000,0.000,34.521
13415,4.188,0.000,2.910,0.000,11.416,0.000,0.000,34.489
13439,4.188,0.000,2.910,0.000,11.416,0.000,0.000,34.488
13463,4.188,0.000,2.910,0.000,11.416,0.000,0.000,34.535
13487,4.187,0.000,2.910,0.000,11.416,0.000,0.000,34.523
13511,4.188,0.000,2.910,0.000,11.416,0.000,0.000,34.540
13535,4.187,0.000,2.910,0.000,11.416,0.000,0.000,34.510
13559,4.187,0.000,2.910,0.000,11.416,0.000,0.000,34.557
13583,4.187,0.000,2.910,0.000,11.416,0.000,0.000,34.529
13607,4.187,0.000,2.910,0.000,11.416,0.000,0.000,34.526
13631,4.187,0.000,2.910,0.000,11.416,0.000,0.000,34.521
13655,4.187,0.000,2.910,0.000,11.416,0.000,0.000,34.511
13679,4.187,0.000,2.910,0.000,11.416,0.000,0.000,34.514
13703,4.186,0.000,2.910,0.000,11.416,0.000,0.000,34.495
13727,4.187,0.000,2.910,0.000,11.416,0.000,0.000,34.499
13751,4.186,0.000,2.910,0.000,11.416,0.000,0.000,34.508
13775,4.186,0.000,2.910,0.000,11.416,0.000,0.000,34.517
13799,4.186,0.000,2.910,0.000,11.416,0.000,0.000,34.494
13823,4.186,0.000,2.910,0.000,11.416,0.000,0.000,34.528
13847,4.186,0.000,2.910,0.000,11.416,0.000,0.000,34.474
13871,4.186,0.000,2.910,0.000,11.416,0.000,0.000,34.515
13895,4.186,0.000,2.910,0.000,11.416,0.000,0.000,34.515
13919,4.186,0.000,2.910,0.000,11.416,0.000,0.000,34.517
13943,4.186,0.000,2.910,0.000,11.416,0.000,0.000,34.514
13967,4.185,0.000,2.910,0.000,11.416,0.000,0.000,34.507
13991,4.186,0.000,2.910,0.000,11.416,0.000,0.000,34.494
14015,4.185,0.000,2.910,0.000,11.416,0.000,0.000,34.449
14039,4.185,0.000,2.910,0.000,11.416,0.000,0.000,34.499
14063,4.185,0.000,2.910,0.000,11.416,0.000,0.000,34.500
14087,4.185,0.000,2.910,0.000,11.416,0.000,0.000,34.529
14111,4.185,0.000,2.910,0.000,11.416,0.000,0.000,34.521
14135,4.185,0.000,2.910,0.000,11.416,0.000,0.000,34.507
14159,4.185,0.000,2.910,0.000,11.416,0.000,0.000,34.494
14183,4.185,0.000,2.910,0.000,11.416,0.000,0.000,34.497
14207,4.185,0.000,2.910,0.000,11.416,0.000,0.000,34.444
14231,4.185,0.000,2.910,0.000,11.416,0.000,0.000,34.475
14255,4.185,0.000,2.910,0.000,11.416,0.000,0.000,34.497
14279,4.185,0.000,2.910,0.000,11.416,0.000,0.000,34.483
14303,4.185,0.000,2.910,0.000,11.416,0.000,0.000,34.468
14327,4.185,0.000,2.910,0.000,11.416,0.000,0.000,34.495
14351,4.184,0.000,2.910,0.000,11.416,0.000,0.000,34.471
14375,4.184,0.000,2.910,0.000,11.416,0.000,0.000,34.449
14399,4.184,0.000,2.910,0.000,11.416,0.000,0.000,34.499
14423,4.184,0.000,2.910,0.000,11.416,0.000,0.000,34.490
14447,4.184,0.000,2.910,0.000,11.416,0.000,0.000,34.505
14471,4.184,0.000,2.910,0.000,11.416,0.000,0.000,34.505
14495,4.184,0.000,2.910,0.000,11.416,0.000,0.000,34.500
14519,4.184,0.000,2.910,0.000,11.416,0.000,0.000,34.473
14543,4.184,0.000,2.910,0.000,11.416,0.000,0.000,34.476
14567,4.184,0.000,2.910,0.000,11.416,0.000,0.000,34.487
14591,4.184,0.000,2.910,0.000,11.416,0.000,0.000,34.490
14615,4.184,0.000,2.910,0.000,11.416,0.000,0.000,34.493
14639,4.184,0.000,2.910,0.000,11.416,0.000,0.000,34.510
14663,4.184,0.000,2.910,0.000,11.416,0.000,0.000,34.504
14687,4.184,0.000,2.910,0.000,11.416,0.000,0.000,34.487
14711,4.184,0.000,2.910,0.000,11.416,0.000,0.000,34.498
14735,4.184,0.000,2.910,0.000,11.416,0.000,0.000,34.500
14759,4.183,0.000,2.910,0.000,11.416,0.000,0.000,34.503
14783,4.183,0.000,2.910,0.000,11.416,0.000,0.000,34.518
14807,4.183,0.000,2.910,0.000,11.416,0.000,0.000,34.550
14831,4.183,0.000,2.910,0.000,11.416,0.000,0.000,34.506
14855,4.183,0.000,2.910,0.000,11.416,0.000,0.000,34.530
14879,4.183,0.000,2.910,0.000,11.416,0.000,0.000,34.498
14903,4.183,0.000,2.910,0.000,11.416,0.000,0.000,34.485
14927,4.183,0.000,2.910,0.000,11.416,0.000,0.000,34.530
14951,4.183,0.000,2.910,0.000,11.416,0.000,0.000,34.488
14975,4.183,0.000,2.910,0.000,11.416,0.000,0.000,34.482
14999,4.183,0.000,2.910,0.000,11.416,0.000,0.000,34.484
15023,4.183,0.000,2.910,0.000,11.416,0.000,0.000,34.488
15047,4.183,0.000,2.910,0.000,11.416,0.000,0.000,34.521
15071,4.183,0.000,2.910,0.000,11.416,0.000,0.000,34.500
15095,4.183,0.000,2.910,0.000,11.416,0.000,0.000,34.504
15119,4.183,0.000,2.910,0.000,11.416,0.000,0.000,34.511
15143,4.183,0.000,2.910,0.000,11.416,0.000,0.000,34.519
15167,4.183,0.000,2.910,0.000,11.416,0.000,0.000,34.506
15191,4.183,0.000,2.910,0.000,11.416,0.000,0.000,34.484
15215,4.183,0.000,2.910,0.000,11.416,0.000,0.000,34.550
15239,4.182,0.000,2.910,0.000,11.416,0.000,0.000,34.482
15263,4.183,0.000,2.910,0.000,11.416,0.000,0.000,34.474
15287,4.182,0.000,2.910,0.000,11.416,0.000,0.000,34.488
15311,4.182,0.000,2.910,0.000,11.416,0.000,0.000,34.485
15335,4.183,0.000,2.910,0.000,11.416,0.000,0.000,34.487
15359,4.182,0.000,2.910,0.000,11.416,0.000,0.000,34.503
15383,4.182,0.000,2.910,0.000,11.416,0.000,0.000,34.442
15407,4.182,0.000,2.910,0.000,11.416,0.000,0.000,34.457
15431,4.182,0.000,2.910,0.000,11.416,0.000,0.000,34.517
15455,4.182,0.000,2.910,0.000,11.416,0.000,0.000,34.494
15479,4.182,0.000,2.910,0.000,11.416,0.000,0.000,34.457
15503,4.182,0.000,2.910,0.000,11.416,0.000,0.000,34.486
15527,4.182,0.000,2.910,0.000,11.416,0.000,0.000,34.493
15551,4.182,0.000,2.910,0.000,11.416,0.000,0.000,34.514
15575,4.182,0.000,2.910,0.000,11.416,0.000,0.000,34.474
15599,4.182,0.000,2.910,0.000,11.416,0.000,0.000,34.469
15623,4.182,0.000,2.910,0.000,11.416,0.000,0.000,34.513
15647,4.182,0.000,2.910,0.000,11.416,0.000,0.000,34.494
15671,4.182,0.000,2.910,0.000,11.416,0.000,0.000,34.492
15695,4.182,0.000,2.910,0.000,11.416,0.000,0.000,34.491
15719,4.182,0.000,2.910,0.000,11.416,0.000,0.000,34.472
15743,4.182,0.000,2.910,0.000,11.416,0.000,0.000,34.489
15767,4.182,0.000,2.910,0.000,11.416,0.000,0.000,34.510
15791,4.182,0.000,2.910,0.000,11.416,0.000,0.000,34.463
15815,4.182,0.000,2.910,0.000,11.416,0.000,0.000,34.468
15839,4.182,0.000,2.910,0.000,11.416,0.000,0.000,34.494
15863,4.182,0.000,2.910,0.000,11.416,0.000,0.000,34.535
15887,4.182,0.000,2.910,0.000,11.416,0.000,0.000,34.481
15911,4.182,0.000,2.910,0.000,11.416,0.000,0.000,34.522
15935,4.182,0.000,2.910,0.000,11.416,0.000,0.000,34.472
15959,4.182,0.000,2.910,0.000,11.416,0.000,0.000,34.485
15983,4.181,0.000,2.910,0.000,11.416,0.000,0.000,34.452
16007,4.181,0.000,2.910,0.000,11.416,0.000,0.000,34.497
16031,4.181,0.000,2.910,0.000,11.416,0.000,0.000,34.540
16055,4.181,0.000,2.910,0.000,11.416,0.000,0.000,34.503
16079,4.181,0.000,2.910,0.000,11.416,0.000,0.000,34.511
16103,4.181,0.000,2.910,0.000,11.416,0.000,0.000,34.529
16127,4.181,0.000,2.910,0.000,11.416,0.000,0.000,34.454
16151,4.181,0.000,2.910,0.000,11.416,0.000,0.000,34.514
16175,4.181,0.000,2.910,0.000,11.416,0.000,0.000,34.526
16199,4.181,0.000,2.910,0.000,11.416,0.000,0.000,34.457
16223,4.181,0.000,2.910,0.000,11.416,0.000,0.000,34.477
16247,4.181,0.000,2.910,0.000,11.416,0.000,0.000,34.515
16271,4.181,0.000,2.910,0.000,11.416,0.000,0.000,34.494
16295,4.181,0.000,2.910,0.000,11.416,0.000,0.000,34.471
16319,4.181,0.000,2.910,0.000,11.416,0.000,0.000,34.516
16343,4.181,0.000,2.910,0.000,11.416,0.000,0.000,34.467
16367,4.181,0.000,2.910,0.000,11.416,0.000,0.000,34.480
16391,4.181,0.000,2.910,0.000,11.416,0.000,0.000,34.485
16414,3.599,-6.702,2.910,0.034,11.416,0.122,-0.002,34.869
16438,3.565,-6.701,2.910,0.078,11.416,0.282,-0.001,35.584
16462,3.545,-6.702,2.910,0.123,11.416,0.441,-0.001,36.385
16486,3.530,-6.702,2.910,0.168,11.416,0.599,-0.001,37.366
16510,3.516,-6.702,2.910,0.212,11.416,0.756,0.000,38.143
16534,3.503,-6.703,2.910,0.257,11.416,0.913,0.000,39.066
16558,3.489,-6.702,2.910,0.302,11.416,1.069,-0.001,39.669
16582,3.474,-6.703,2.910,0.346,11.416,1.224,-0.001,40.511
16606,3.459,-6.702,2.910,0.391,11.416,1.379,-0.001,41.189
16630,3.444,-6.702,2.910,0.436,11.416,1.534,-0.001,41.861
16654,3.428,-6.702,2.910,0.480,11.416,1.687,-0.001,42.489
16678,3.412,-6.703,2.910,0.525,11.416,1.840,-0.001,43.162
16702,3.396,-6.703,2.910,0.570,11.416,1.992,-0.001,43.641
16726,3.381,-6.701,2.910,0.614,11.416,2.143,0.000,44.125
16750,3.366,-6.701,2.910,0.659,11.416,2.294,-0.001,44.702
16774,3.351,-6.701,2.910,0.704,11.416,2.444,-0.001,45.222
16798,3.336,-6.701,2.910,0.748,11.416,2.594,-0.001,45.685
16822,3.322,-6.701,2.910,0.793,11.416,2.742,0.000,46.111
16846,3.307,-6.701,2.910,0.838,11.416,2.890,0.000,46.538
16870,3.293,-6.701,2.910,0.882,11.416,3.038,-0.001,47.107
16894,3.279,-6.700,2.910,0.927,11.416,3.184,0.000,47.525
16918,3.264,-6.701,2.910,0.972,11.416,3.331,0.000,47.903
16942,3.250,-6.701,2.910,1.016,11.416,3.476,-0.001,48.305
16966,3.235,-6.700,2.910,1.061,11.416,3.621,-0.001,48.639
16990,3.221,-6.701,2.910,1.106,11.416,3.765,-0.001,49.081
17014,3.206,-6.701,2.910,1.150,11.416,3.909,-0.001,49.521
17038,3.191,-6.701,2.910,1.195,11.416,4.052,-0.001,49.952
17062,3.177,-6.700,2.910,1.240,11.416,4.194,-0.001,50.385
17086,3.163,-6.701,2.910,1.285,11.416,4.335,-0.001,50.738
17110,3.149,-6.700,2.910,1.329,11.416,4.476,-0.001,51.172
17134,3.135,-6.702,2.910,1.374,11.416,4.617,-0.001,51.232
17158,3.121,-6.701,2.910,1.419,11.416,4.757,-0.001,51.690
17182,3.107,-6.701,2.910,1.463,11.416,4.896,-0.001,52.077
17206,3.094,-6.701,2.910,1.508,11.416,5.034,-0.001,52.261
17230,3.081,-6.700,2.910,1.553,11.416,5.172,-0.001,52.650
17254,3.069,-6.701,2.910,1.597,11.416,5.309,0.000,52.852
17278,3.056,-6.702,2.910,1.642,11.416,5.446,-0.001,53.317
17302,3.044,-6.701,2.910,1.687,11.416,5.583,-0.001,53.508
17326,3.033,-6.701,2.910,1.731,11.416,5.718,-0.001,53.603
17350,3.022,-6.700,2.910,1.776,11.416,5.854,-0.001,54.034
17374,3.011,-6.702,2.910,1.821,11.416,5.988,-0.001,54.297
17398,3.000,-6.701,2.910,1.865,11.416,6.123,0.000,54.452
17422,2.989,-6.702,2.910,1.910,11.416,6.256,-0.001,54.811
17446,2.978,-6.701,2.910,1.955,11.416,6.390,0.000,54.922
17470,2.968,-6.701,2.910,1.999,11.416,6.522,0.000,55.394
17494,2.957,-6.702,2.910,2.044,11.416,6.655,0.000,55.627
17518,2.946,-6.701,2.910,2.089,11.416,6.787,-0.001,55.999
17542,2.935,-6.702,2.910,2.133,11.416,6.918,0.000,56.066
17566,2.924,-6.702,2.910,2.178,11.416,7.049,-0.001,56.247
17590,2.913,-6.702,2.910,2.223,11.416,7.179,0.000,56.468
17614,2.902,-6.701,2.910,2.267,11.416,7.309,-0.001,56.674
17638,2.890,-6.701,2.910,2.312,11.416,7.439,-0.001,57.093
17662,2.878,-6.701,2.910,2.357,11.416,7.567,0.000,57.453
17686,2.865,-6.701,2.910,2.401,11.416,7.696,-0.001,57.475
17710,2.852,-6.700,2.910,2.446,11.416,7.823,0.000,57.776
17734,2.839,-6.701,2.910,2.491,11.416,7.950,-0.001,58.097
17758,2.825,-6.701,2.910,2.535,11.416,8.077,-0.001,58.179
17782,2.811,-6.703,2.910,2.580,11.416,8.203,0.000,58.465
17806,2.796,-6.702,2.910,2.625,11.416,8.328,-0.001,58.628
17830,2.782,-6.701,2.910,2.669,11.416,8.453,-0.001,58.914
17854,2.767,-6.702,2.910,2.714,11.416,8.577,-0.001,59.353
17878,2.751,-6.702,2.910,2.759,11.416,8.700,0.000,59.441
17902,2.736,-6.702,2.910,2.803,11.416,8.823,-0.001,59.692
17926,2.720,-6.700,2.910,2.848,11.416,8.944,-0.001,59.749
17950,2.703,-6.702,2.910,2.893,11.416,9.066,-0.001,59.966
17974,2.685,-6.702,2.910,2.937,11.416,9.186,-0.001,60.245
17998,2.665,-6.701,2.910,2.982,11.416,9.305,-0.001,60.353
18022,2.643,-6.701,2.910,3.027,11.416,9.424,-0.001,60.652
18046,2.618,-6.700,2.910,3.072,11.416,9.541,-0.001,60.973
18070,2.586,-6.701,2.910,3.116,11.416,9.658,-0.001,61.456
18094,2.541,-6.701,2.910,3.161,11.416,9.772,-0.002,61.835
18118,3.116,0.000,2.910,3.189,11.416,9.843,0.005,62.054
18142,3.177,0.000,2.910,3.189,11.416,9.843,0.001,61.318
18166,3.202,0.000,2.910,3.189,11.416,9.843,0.001,60.505
18190,3.215,0.000,2.910,3.189,11.416,9.843,0.000,59.446
18214,3.223,0.000,2.910,3.189,11.416,9.843,0.000,58.292
18238,3.229,0.000,2.910,3.189,11.416,9.843,0.000,57.214
18262,3.233,0.000,2.910,3.189,11.416,9.843,0.000,56.375
18286,3.236,0.000,2.910,3.189,11.416,9.843,0.000,55.446
18310,3.239,0.000,2.910,3.189,11.416,9.843,0.000,54.484
18334,3.241,0.000,2.910,3.189,11.416,9.843,0.000,53.668
18358,3.243,0.000,2.910,3.189,11.416,9.843,0.000,52.790
18382,3.244,0.000,2.910,3.189,11.416,9.843,0.000,52.073
18406,3.246,0.000,2.910,3.189,11.416,9.843,0.000,51.463
18430,3.246,0.000,2.910,3.189,11.416,9.843,0.000,50.656
18454,3.248,0.000,2.910,3.189,11.416,9.843,0.000,49.889
18478,3.248,0.000,2.910,3.189,11.416,9.843,0.000,49.362
18502,3.249,0.000,2.910,3.189,11.416,9.843,0.000,48.707
18526,3.250,0.000,2.910,3.189,11.416,9.843,0.000,48.029
18550,3.251,0.000,2.910,3.189,11.416,9.843,0.000,47.503
18574,3.251,0.000,2.910,3.189,11.416,9.843,0.000,46.969
18598,3.252,0.000,2.910,3.189,11.416,9.843,0.000,46.290
18622,3.252,0.000,2.910,3.189,11.416,9.843,0.000,45.861
18646,3.253,0.000,2.910,3.189,11.416,9.843,0.000,45.352
18670,3.253,0.000,2.910,3.189,11.416,9.843,0.000,44.870
18694,3.254,0.000,2.910,3.189,11.416,9.843,0.000,44.559
18718,3.254,0.000,2.910,3.189,11.416,9.843,0.000,44.066
18742,3.255,0.000,2.910,3.189,11.416,9.843,0.000,43.724
18766,3.255,0.000,2.910,3.189,11.416,9.843,0.000,43.260
18790,3.255,0.000,2.910,3.189,11.416,9.843,0.000,42.962
18814,3.256,0.000,2.910,3.189,11.416,9.843,0.000,42.428
18838,3.256,0.000,2.910,3.189,11.416,9.843,0.000,42.108
18862,3.257,0.000,2.910,3.189,11.416,9.843,0.000,41.773
18886,3.257,0.000,2.910,3.189,11.416,9.843,0.000,41.544
18910,3.257,0.000,2.910,3.189,11.416,9.843,0.000,41.211
18934,3.258,0.000,2.910,3.189,11.416,9.843,0.000,38.824
18958,3.258,0.000,2.910,3.189,11.416,9.843,0.000,37.814
18982,3.258,0.000,2.910,3.189,11.416,9.843,0.000,37.122
19006,3.259,0.000,2.910,3.189,11.416,9.843,0.000,36.657
19030,3.259,0.000,2.910,3.189,11.416,9.843,0.000,36.807
19054,3.260,0.000,2.910,3.189,11.416,9.843,0.000,36.209
19078,3.260,0.000,2.910,3.189,11.416,9.843,0.000,36.132
19102,3.260,0.000,2.910,3.189,11.416,9.843,0.000,35.296
19126,3.261,0.000,2.910,3.189,11.416,9.843,0.000,35.218
19150,3.261,0.000,2.910,3.189,11.416,9.843,0.000,34.722
19174,3.261,0.000,2.910,3.189,11.416,9.843,0.000,36.233
19198,3.261,0.000,2.910,3.189,11.416,9.843,0.000,36.444
19222,3.262,0.000,2.910,3.189,11.416,9.843,0.000,36.278
19246,3.262,0.000,2.910,3.189,11.416,9.843,0.000,36.038
19270,3.262,0.000,2.910,3.189,11.416,9.843,0.000,35.803
19294,3.262,0.000,2.910,3.189,11.416,9.843,0.000,35.670
19318,3.262,0.000,2.910,3.189,11.416,9.843,0.000,35.511
19342,3.263,0.000,2.910,3.189,11.416,9.843,0.000,35.373
19366,3.263,0.000,2.910,3.189,11.416,9.843,0.000,35.350
19390,3.263,0.000,2.910,3.189,11.416,9.843,0.000,35.374
19414,3.263,0.000,2.910,3.189,11.416,9.843,0.000,35.392
19438,3.263,0.000,2.910,3.189,11.416,9.843,0.000,35.385
19462,3.263,0.000,2.910,3.189,11.416,9.843,0.000,35.405
19486,3.263,0.000,2.910,3.189,11.416,9.843,0.000,35.360
19510,3.263,0.000,2.910,3.189,11.416,9.843,0.000,35.302
19534,3.263,0.000,2.910,3.189,11.416,9.843,0.000,35.343
19558,3.264,0.000,2.910,3.189,11.416,9.843,0.000,35.377
19582,3.264,0.000,2.910,3.189,11.416,9.843,0.000,35.316
19606,3.264,0.000,2.910,3.189,11.416,9.843,0.000,35.296
19630,3.264,0.000,2.910,3.189,11.416,9.843,0.000,35.279
19654,3.264,0.000,2.910,3.189,11.416,9.843,0.000,35.259
19678,3.264,0.000,2.910,3.189,11.416,9.843,0.000,35.174
19702,3.264,0.000,2.910,3.189,11.416,9.843,0.000,35.169
19726,3.264,0.000,2.910,3.189,11.416,9.843,0.000,35.147
19750,3.264,0.000,2.910,3.189,11.416,9.843,0.000,35.047
19774,3.264,0.000,2.910,3.189,11.416,9.843,0.000,35.084
19798,3.264,0.000,2.910,3.189,11.416,9.843,0.000,35.039
19822,3.264,0.000,2.910,3.189,11.416,9.843,0.000,35.025
19846,3.264,0.000,2.910,3.189,11.416,9.843,0.000,34.995
19870,3.264,0.000,2.910,3.189,11.416,9.843,0.000,34.971
19894,3.264,0.000,2.910,3.189,11.416,9.843,0.000,34.923
19918,3.265,0.000,2.910,3.189,11.416,9.843,0.000,34.880
19942,3.265,0.000,2.910,3.189,11.416,9.843,0.000,34.864
19966,3.265,0.000,2.910,3.189,11.416,9.843,0.000,34.908
19990,3.265,0.000,2.910,3.189,11.416,9.843,0.000,34.855
20014,3.265,0.000,2.910,3.189,11.416,9.843,0.000,34.821
20038,3.265,0.000,2.910,3.189,11.416,9.843,0.000,34.794
20062,3.265,0.000,2.910,3.189,11.416,9.843,0.000,34.801
20086,3.265,0.000,2.910,3.189,11.416,9.843,0.000,34.830
20110,3.265,0.000,2.910,3.189,11.416,9.843,0.000,34.809
20134,3.265,0.000,2.910,3.189,11.416,9.843,0.000,34.789
20158,3.265,0.000,2.910,3.189,11.416,9.843,0.000,34.839
20182,3.265,0.000,2.910,3.189,11.416,9.843,0.000,34.737
20206,3.265,0.000,2.910,3.189,11.416,9.843,0.000,34.826
20230,3.265,0.000,2.910,3.189,11.416,9.843,0.000,34.756
20254,3.265,0.000,2.910,3.189,11.416,9.843,0.000,34.744
20278,3.265,0.000,2.910,3.189,11.416,9.843,0.000,34.728
20302,3.265,0.000,2.910,3.189,11.416,9.843,0.000,34.712
20326,3.265,0.000,2.910,3.189,11.416,9.843,0.000,34.723
20350,3.266,0.000,2.910,3.189,11.416,9.843,0.000,34.703
20374,3.265,0.000,2.910,3.189,11.416,9.843,0.000,34.713
20398,3.266,0.000,2.910,3.189,11.416,9.843,0.000,34.631
20422,3.265,0.000,2.910,3.189,11.416,9.843,0.000,34.682
20446,3.266,0.000,2.910,3.189,11.416,9.843,0.000,34.662
20470,3.266,0.000,2.910,3.189,11.416,9.843,0.000,34.614
20494,3.266,0.000,2.910,3.189,11.416,9.843,0.000,34.639
20518,3.266,0.000,2.910,3.189,11.416,9.843,0.000,34.651
20542,3.266,0.000,2.910,3.189,11.416,9.843,0.000,34.643
20566,3.266,0.000,2.910,3.189,11.416,9.843,0.000,34.605
20590,3.266,0.000,2.910,3.189,11.416,9.843,0.000,34.613
20614,3.266,0.000,2.910,3.189,11.416,9.843,0.000,34.631
20638,3.266,0.000,2.910,3.189,11.416,9.843,0.000,34.590
20662,3.266,0.000,2.910,3.189,11.416,9.843,0.000,34.649
20686,3.266,0.000,2.910,3.189,11.416,9.843,0.000,34.577
20710,3.266,0.000,2.910,3.189,11.416,9.843,0.000,34.624
20734,3.266,0.000,2.910,3.189,11.416,9.843,0.000,34.571
20758,3.266,0.000,2.910,3.189,11.416,9.843,0.000,34.573
20782,3.266,0.000,2.910,3.189,11.416,9.843,0.000,34.579
20806,3.266,0.000,2.910,3.189,11.416,9.843,0.000,34.586
20830,3.266,0.000,2.910,3.189,11.416,9.843,0.000,34.572
20854,3.266,0.000,2.910,3.189,11.416,9.843,0.000,34.576
20878,3.266,0.000,2.910,3.189,11.416,9.843,0.000,34.585
20902,3.266,0.000,2.910,3.189,11.416,9.843,0.000,34.586
20926,3.266,0.000,2.910,3.189,11.416,9.843,0.000,34.564
20950,3.266,0.000,2.910,3.189,11.416,9.843,0.000,34.580
20974,3.266,0.000,2.910,3.189,11.416,9.843,0.000,34.569
20998,3.267,0.000,2.910,3.189,11.416,9.843,0.000,34.593
21022,3.266,0.000,2.910,3.189,11.416,9.843,0.000,34.570
21046,3.267,0.000,2.910,3.189,11.416,9.843,0.000,34.600
21070,3.267,0.000,2.910,3.189,11.416,9.843,0.000,34.543
21094,3.267,0.000,2.910,3.189,11.416,9.843,0.000,34.589
21118,3.267,0.000,2.910,3.189,11.416,9.843,0.000,34.573
21142,3.267,0.000,2.910,3.189,11.416,9.843,0.000,34.553
21166,3.267,0.000,2.910,3.189,11.416,9.843,0.000,34.538
21190,3.267,0.000,2.910,3.189,11.416,9.843,0.000,34.580
21214,3.267,0.000,2.910,3.189,11.416,9.843,0.000,34.550
21238,3.267,0.000,2.910,3.189,11.416,9.843,0.000,34.548
21262,3.267,0.000,2.910,3.189,11.416,9.843,0.000,34.547
21286,3.267,0.000,2.910,3.189,11.416,9.843,0.000,34.550
21310,3.267,0.000,2.910,3.189,11.416,9.843,0.000,34.523
21334,3.267,0.000,2.910,3.189,11.416,9.843,0.000,34.547
21358,3.267,0.000,2.910,3.189,11.416,9.843,0.000,34.547
21382,3.267,0.000,2.910,3.189,11.416,9.843,0.000,34.515
21406,3.267,0.000,2.910,3.189,11.416,9.843,0.000,34.538
21430,3.267,0.000,2.910,3.189,11.416,9.843,0.000,34.512
21454,3.267,0.000,2.910,3.189,11.416,9.843,0.000,34.533
21478,3.267,0.000,2.910,3.189,11.416,9.843,0.000,34.522
21502,3.267,0.000,2.910,3.189,11.416,9.843,0.000,34.566
21526,3.267,0.000,2.910,3.189,11.416,9.843,0.000,34.564
21550,3.267,0.000,2.910,3.189,11.416,9.843,0.000,34.510
21574,3.267,0.000,2.910,3.189,11.416,9.843,0.000,34.503
21598,3.267,0.000,2.910,3.189,11.416,9.843,0.000,34.511
21622,3.267,0.000,2.910,3.189,11.416,9.843,0.000,34.503
21646,3.267,0.000,2.910,3.189,11.416,9.843,0.000,34.502
21670,3.267,0.000,2.910,3.189,11.416,9.843,0.000,34.552
21694,3.267,0.000,2.910,3.189,11.416,9.843,0.000,34.498
21709,3.268,0.000,2.910,3.189,11.416,9.843,0.000,34.528